#Wave		#Intensity
3000.64844	196.79717
2999.91016	236.39867
2999.17188	137.11821
2998.43359	142.83188
2997.69531	104.5201
2996.95703	69.59561
2996.21875	142.96902
2995.47949	70.80102
2994.74023	150.88472
2994.00098	200.48573
2993.26172	243.29338
2992.52246	181.25601
2991.7832	173.31905
2991.04394	124.81326
2990.30371	208.103
2989.56348	264.32059
2988.82422	286.7301
2988.08398	163.88011
2987.34375	253.8085
2986.60254	286.28934
2985.86231	291.74658
2985.12109	341.06018
2984.38086	322.86023
2983.63965	358.63068
2982.89844	387.62955
2982.15723	312.05429
2981.41602	317.42267
2980.67481	305.91995
2979.93262	250.58302
2979.19141	286.25473
2978.44922	311.78674
2977.70703	246.3354
2976.96484	345.9443
2976.22266	357.94369
2975.47949	258.80557
2974.73731	206.82817
2973.99414	238.99869
2973.25195	240.86348
2972.50879	360.47284
2971.76563	335.37152
2971.02246	219.4538
2970.2793	312.06158
2969.53516	280.21481
2968.79199	292.07422
2968.04785	206.44144
2967.30371	224.99934
2966.55957	337.61194
2965.81543	315.80402
2965.07129	357.80405
2964.32617	299.0314
2963.58203	421.57001
2962.83691	302.36044
2962.0918	240.2356
2961.34766	295.56958
2960.60254	263.63699
2959.85644	402.76575
2959.11133	494.88592
2958.36523	285.177
2957.62012	508.005
2956.87402	472.64032
2956.12793	400.41199
2955.38184	592.89667
2954.63574	554.14673
2953.88965	558.94037
2953.14258	687.61847
2952.39648	692.35992
2951.64941	710.4704
2950.90234	641.5401
2950.15527	810.21332
2949.4082	711.15155
2948.66113	866.34357
2947.91309	887.67828
2947.16602	1032.72339
2946.41797	873.45422
2945.66992	918.13489
2944.92188	909.31244
2944.17383	860.38159
2943.42578	871.59137
2942.67676	809.29096
2941.92871	743.66681
2941.17969	611.26526
2940.43066	702.57452
2939.68164	576.87744
2938.93262	618.07398
2938.18359	529.11395
2937.43457	490.21289
2936.68457	354.57889
2935.93457	319.02478
2935.18555	363.49719
2934.43555	474.6048
2933.68555	382.34644
2932.93457	356.74875
2932.18457	267.84994
2931.43359	345.52072
2930.68359	293.26486
2929.93262	294.28656
2929.18164	162.12048
2928.43066	352.87543
2927.67969	327.21896
2926.92773	354.79129
2926.17676	279.21258
2925.42481	300.10312
2924.67383	167.99713
2923.92188	288.62494
2923.16992	249.61968
2922.41699	174.04513
2921.66504	161.633
2920.91309	205.69638
2920.16016	249.72287
2919.40723	194.07538
2918.6543	307.79712
2917.90137	242.1703
2917.14844	309.33847
2916.39551	164.05039
2915.6416	221.21736
2914.88867	225.27135
2914.13477	186.17851
2913.38086	163.66866
2912.62695	267.16068
2911.87305	241.30008
2911.11914	182.28654
2910.36426	259.1546
2909.61035	200.13057
2908.85547	306.75464
2908.10059	260.95666
2907.3457	231.71974
2906.59082	328.30243
2905.83594	305.65588
2905.08008	253.20583
2904.32519	326.52261
2903.56934	277.36737
2902.81348	343.99988
2902.05762	99.68577
2901.30176	182.83174
2900.5459	246.09428
2899.78906	239.89169
2899.0332	71.7335
2898.27637	125.01636
2897.51953	264.16617
2896.76269	195.14265
2896.00586	248.32884
2895.24902	423.65808
2894.49121	209.32538
2893.73438	308.64716
2892.97656	206.59332
2892.21875	322.34015
2891.46094	388.5434
2890.70313	269.99304
2889.94531	237.2155
2889.1875	201.13747
2888.42871	214.49976
2887.66992	247.61816
2886.91211	290.60315
2886.15332	264.35776
2885.39453	271.04904
2884.63477	155.84993
2883.87598	211.92363
2883.11621	291.0004
2882.35742	195.57364
2881.59766	287.75876
2880.83789	264.72275
2880.07813	146.2686
2879.31836	205.47145
2878.55762	142.94276
2877.79785	77.14099
2877.03711	-21.53618
2876.27637	77.02804
2875.51563	73.66152
2874.75488	109.71044
2873.99414	40.60375
2873.23242	152.15221
2872.47168	73.17951
2871.70996	69.73057
2870.94824	72.83245
2870.18652	102.17509
2869.42481	-22.74423
2868.66309	49.22635
2867.90137	42.42518
2867.13867	52.00154
2866.37598	-0.7464
2865.61426	67.8253
2864.85156	-4.60618
2864.08887	-34.42109
2863.32519	165.12643
2862.5625	50.0783
2861.79883	56.24482
2861.03613	85.32619
2860.27246	65.25668
2859.50879	81.19009
2858.74512	38.18402
2857.98047	18.07724
2857.2168	33.96169
2856.45313	134.88049
2855.68848	150.69678
2854.92383	107.62742
2854.15918	25.32256
2853.39453	54.17721
2852.62988	177.78827
2851.86426	43.17332
2851.09961	52.35622
2850.33398	38.64483
2849.56836	24.92169
2848.80273	-116.16331
2848.03711	111.7089
2847.27148	9.7971
2846.50488	61.28647
2845.73926	-40.61212
2844.97266	59.77027
2844.20606	55.72158
2843.43945	19.04551
2842.67285	18.23276
2841.90625	-57.57654
2841.13965	65.44913
2840.37207	142.78044
2839.60449	14.79946
2838.83691	105.10844
2838.06934	55.31577
2837.30176	-66.11639
2836.53418	-1.93979
2835.7666	6.85779
2834.99805	116.51959
2834.22949	-14.6738
2833.46094	101.42436
2832.69238	175.17586
2831.92383	-21.05188
2831.15527	49.40909
2830.38574	145.82632
2829.61719	66.67638
2828.84766	124.02268
2828.07813	-13.62405
2827.30859	89.1622
2826.53906	130.18051
2825.76953	86.73284
2824.99902	241.33249
2824.22949	214.07684
2823.45898	157.59354
2822.68848	318.53284
2821.91797	161.43797
2821.14746	452.03714
2820.37695	418.18487
2819.60547	533.48096
2818.83398	340.71979
2818.06348	504.58429
2817.29199	519.28064
2816.52051	537.1944
2815.74902	477.33112
2814.97656	466.04929
2814.20508	402.94708
2813.43262	317.17578
2812.66016	263.7912
2811.88769	352.82382
2811.11523	364.1391
2810.34277	320.42844
2809.57031	212.01752
2808.79688	119.79054
2808.02441	241.01587
2807.25098	190.81255
2806.47754	150.30728
2805.7041	132.42244
2804.92969	108.05412
2804.15625	-45.54429
2803.38281	43.1581
2802.6084	44.60177
2801.83398	75.08761
2801.05957	-39.73325
2800.28516	-41.55736
2799.51074	-1.44578
2798.73535	83.79554
2797.96094	98.02504
2797.18555	112.22088
2796.41016	39.32352
2795.63477	95.40324
2794.85938	74.07675
2794.08398	23.7327
2793.30762	-33.06612
2792.53223	26.13373
2791.75586	85.28354
2790.97949	31.66985
2790.20313	-15.50254
2789.42676	30.68874
2788.65039	51.09327
2787.87305	-15.43208
2787.09668	24.24241
2786.31934	5.96571
2785.54199	35.92463
2784.76465	-17.75999
2783.98731	121.47556
2783.20898	16.31174
2782.43164	165.09435
2781.65332	162.75682
2780.87598	131.49513
2780.09766	26.3315
2779.31934	49.65846
2778.54004	-36.2323
2777.76172	28.79701
2776.9834	42.42357
2776.2041	91.31911
2775.42481	124.13338
2774.64551	-38.7838
2773.86621	48.53364
2773.08691	100.52268
2772.30664	40.23803
2771.52734	8.81925
2770.74707	70.33447
2769.9668	106.17062
2769.18652	17.01592
2768.40625	196.96606
2767.62598	-49.15183
2766.84473	28.22169
2766.06445	79.9445
2765.2832	67.59615
2764.50195	106.44115
2763.7207	1.25586
2762.93945	65.65453
2762.1582	177.99065
2761.37598	-74.33321
2760.59473	95.50448
2759.8125	99.00682
2759.03027	-12.58106
2758.24805	198.6268
2757.46582	249.97708
2756.68262	90.43448
2755.90039	298.25311
2755.11719	46.11168
2754.33398	-49.50731
2753.55176	148.5858
2752.76758	139.10715
2751.98438	68.99269
2751.20117	120.12231
2750.41699	104.21468
2749.63379	145.7113
2748.84961	193.53879
2748.06543	43.66617
2747.28125	24.51702
2746.49609	202.93344
2745.71191	110.43625
2744.92676	100.77142
2744.14258	135.69369
2743.35742	-71.45577
2742.57227	125.81684
2741.78711	4.65727
2741.00098	300.45804
2740.21582	109.26169
2739.42969	182.17941
2738.64356	57.82576
2737.85742	181.57278
2737.07129	60.40436
2736.28516	117.29973
2735.49902	161.4388
2734.71191	141.96783
2733.92578	173.33524
2733.13867	55.34398
2732.35156	159.71892
2731.56445	73.49052
2730.77637	225.39798
2729.98926	50.26051
2729.20117	198.90089
2728.41406	103.12651
2727.62598	115.23076
2726.83789	190.75378
2726.04981	91.78909
2725.26074	160.89333
2724.47266	195.08815
2723.68359	86.59401
2722.89551	120.74835
2722.10644	139.01396
2721.31738	106.56249
2720.52734	51.91774
2719.73828	161.96417
2718.94922	142.1292
2718.15918	128.60036
2717.36914	32.76131
2716.5791	145.79858
2715.78906	40.45776
2714.99902	143.9195
2714.20801	161.91397
2713.41797	176.7303
2712.62695	102.98212
2711.83594	111.42753
2711.04492	202.02061
2710.25391	55.56802
2709.46289	221.91884
2708.6709	12.28795
2707.87988	200.64935
2707.08789	208.92743
2706.2959	81.43267
2705.50391	140.18947
2704.71191	271.4859
2703.91894	339.59582
2703.12695	278.33234
2702.33398	116.12931
2701.54102	313.45706
2700.74805	157.57044
2699.95508	294.88107
2699.16211	347.02368
2698.36914	468.44898
2697.57519	391.31345
2696.78125	257.48639
2695.98828	344.15362
2695.19434	320.54804
2694.39941	363.02838
2693.60547	314.20422
2692.81152	167.81885
2692.0166	247.99591
2691.22168	328.121
2690.42676	131.41283
2689.63184	151.73811
2688.83691	300.94061
2688.04199	41.41186
2687.24609	64.80663
2686.45019	138.44815
2685.6543	262.30759
2684.8584	181.92452
2684.0625	337.09186
2683.2666	190.74077
2682.4707	242.20424
2681.67383	-32.82359
2680.87695	175.51729
2680.08008	186.08624
2679.2832	224.86322
2678.48633	216.55576
2677.68945	236.45241
2676.8916	143.43466
2676.09473	41.03882
2675.29688	158.03563
2674.49902	202.89519
2673.70117	94.19899
2672.90234	98.27423
2672.10449	83.54805
2671.30664	228.49754
2670.50781	179.25745
2669.70898	95.58212
2668.91016	80.76453
2668.11133	134.76561
2667.31152	44.80788
2666.51269	48.70648
2665.71289	187.03587
2664.91309	253.38013
2664.11426	103.99629
2663.31348	82.7607
2662.51367	86.52257
2661.71387	112.12985
2660.91309	-30.98613
2660.11328	278.78894
2659.3125	151.26163
2658.51172	245.41605
2657.71094	245.87184
2656.90918	165.15154
2656.1084	93.81257
2655.30664	141.00838
2654.50488	-42.64344
2653.70313	310.12079
2652.90137	107.75316
2652.09961	164.17119
2651.29785	49.12731
2650.49512	205.19073
2649.69336	34.05645
2648.89063	165.09924
2648.08789	65.6068
2647.28516	115.59033
2646.48144	212.21565
2645.67871	265.21948
2644.875	147.00368
2644.07129	377.29309
2643.26758	336.82599
2642.46387	156.38751
2641.66016	203.00255
2640.85644	174.95773
2640.05176	361.37668
2639.24805	78.411
2638.44336	143.54332
2637.63867	174.45223
2636.83398	251.92041
2636.02832	257.89123
2635.22363	254.53558
2634.41797	226.30751
2633.61231	52.1821
2632.80762	290.85724
2632.00098	402.1778
2631.19531	271.47659
2630.38965	289.67834
2629.58301	134.17735
2628.77734	353.87976
2627.9707	247.97559
2627.16406	207.17204
2626.35742	181.85387
2625.54981	227.76393
2624.74316	224.0869
2623.93555	334.96127
2623.12891	98.98787
2622.32129	311.95837
2621.51367	289.58707
2620.70508	196.00868
2619.89746	250.9717
2619.08887	247.09918
2618.28125	370.02884
2617.47266	353.71811
2616.66406	117.87357
2615.85547	314.86093
2615.0459	301.57312
2614.23731	306.82187
2613.42773	274.95605
2612.61816	286.32248
2611.80957	279.14542
2610.99902	222.51364
2610.18945	209.11427
2609.37988	340.76401
2608.56934	256.30624
2607.75977	221.23723
2606.94922	294.11145
2606.13867	447.12555
2605.32813	214.59685
2604.5166	352.0889
2603.70606	338.47611
2602.89453	355.64862
2602.08301	292.6748
2601.27148	315.96234
2600.45996	142.08254
2599.64844	205.37617
2598.83691	148.5376
2598.02441	140.9368
2597.21191	-11.34754
2596.39941	251.84181
2595.58691	262.61325
2594.77441	461.00339
2593.96191	265.61621
2593.14844	260.91483
2592.33594	197.79091
2591.52246	399.00507
2590.70898	222.10152
2589.89551	324.8591
2589.08106	215.55864
2588.26758	161.57834
2587.45313	334.83341
2586.63965	495.73193
2585.82519	278.93753
2585.01074	387.54346
2584.19531	357.97638
2583.38086	245.57134
2582.56543	280.41122
2581.75098	284.55869
2580.93555	319.32849
2580.12012	305.00632
2579.30469	342.77481
2578.48828	371.29395
2577.67285	430.43417
2576.85644	158.64966
2576.04004	285.12717
2575.22363	393.15765
2574.40723	265.36322
2573.59082	305.95969
2572.77441	371.00125
2571.95703	249.3122
2571.13965	357.10678
2570.32227	455.65936
2569.50488	376.76395
2568.6875	423.24323
2567.87012	381.02008
2567.05176	228.73215
2566.23438	519.62317
2565.41602	535.36829
2564.59766	309.74298
2563.7793	279.65588
2562.95996	273.96918
2562.1416	500.31888
2561.32227	305.27841
2560.50391	397.19577
2559.68457	394.44116
2558.86523	315.38928
2558.04492	483.40262
2557.22559	318.91928
2556.40527	419.73596
2555.58594	331.49109
2554.76563	444.40848
2553.94531	453.64429
2553.12402	401.89578
2552.30371	432.40903
2551.4834	271.00238
2550.66211	161.38234
2549.84082	487.15832
2549.01953	316.60715
2548.19824	432.18048
2547.37695	340.76752
2546.55469	428.84412
2545.7334	550.33783
2544.91113	437.57208
2544.08887	330.90445
2543.2666	424.89398
2542.44434	497.54605
2541.62109	141.6436
2540.79883	147.42741
2539.97559	341.50674
2539.15234	438.29739
2538.3291	301.20664
2537.50586	385.77249
2536.68164	570.43451
2535.8584	448.49338
2535.03418	393.31045
2534.20996	438.23627
2533.38574	282.92908
2532.56152	461.24185
2531.73731	284.71222
2530.91211	347.6926
2530.08789	137.8595
2529.26269	303.82297
2528.4375	233.37711
2527.61231	538.55121
2526.78711	507.40726
2525.96094	243.07147
2525.13574	490.47165
2524.30957	217.1057
2523.4834	313.03058
2522.65723	490.58908
2521.83106	462.34073
2521.00391	488.5029
2520.17773	478.35815
2519.35059	570.97156
2518.52344	569.81372
2517.69629	447.73578
2516.86914	473.74548
2516.04199	478.5704
2515.21387	422.93652
2514.38574	717.62659
2513.55859	429.43179
2512.73047	458.28986
2511.90137	435.78125
2511.07324	383.09436
2510.24512	541.60742
2509.41602	440.58337
2508.58691	363.70017
2507.75781	497.90601
2506.92871	544.60132
2506.09961	512.87848
2505.27051	420.86475
2504.44043	470.4642
2503.61035	580.27179
2502.78027	229.15823
2501.95019	405.17181
2501.12012	418.49905
2500.29004	555.22205
2499.45898	619.61267
2498.62793	358.9502
2497.79785	624.90228
2496.9668	535.74853
2496.13477	359.36386
2495.30371	417.58398
2494.47266	559.93567
2493.64063	599.98944
2492.80859	459.68353
2491.97656	655.93396
2491.14453	692.86279
2490.3125	504.48123
2489.47949	568.38025
2488.64746	410.06451
2487.81445	548.95166
2486.98144	438.64905
2486.14844	508.40762
2485.31445	506.08926
2484.48144	599.75244
2483.64746	387.42996
2482.81445	328.10278
2481.98047	355.69324
2481.14648	344.28043
2480.31152	365.79147
2479.47754	597.02301
2478.64258	291.89664
2477.80859	319.33408
2476.97363	463.50198
2476.13867	514.77649
2475.30273	422.30185
2474.46777	443.58203
2473.63281	351.12167
2472.79688	435.16068
2471.96094	555.03479
2471.125	375.77918
2470.28906	456.69559
2469.45215	567.43012
2468.61621	364.28195
2467.7793	468.96161
2466.94238	250.89777
2466.10547	304.72275
2465.26856	376.42096
2464.43164	510.7717
2463.59375	436.04098
2462.75684	438.93991
2461.91894	465.66559
2461.08106	283.48908
2460.24316	551.82153
2459.40527	456.1405
2458.56641	384.30661
2457.72852	392.99414
2456.88965	458.26996
2456.05078	302.94345
2455.21191	466.4921
2454.37207	573.32721
2453.5332	349.47589
2452.69336	509.8446
2451.85449	506.37747
2451.01465	315.31299
2450.17481	466.58661
2449.33398	382.66022
2448.49414	301.73309
2447.65332	497.44385
2446.81348	351.03964
2445.97266	418.74692
2445.13184	492.34702
2444.29102	497.52353
2443.44922	627.47455
2442.6084	522.62811
2441.7666	539.57953
2440.92481	128.77834
2440.08301	317.98615
2439.24121	477.40323
2438.39844	387.35248
2437.55664	433.85703
2436.71387	379.40448
2435.87109	408.01761
2435.02832	362.43475
2434.18555	527.41077
2433.34277	644.85388
2432.49902	527.99902
2431.65625	354.86466
2430.8125	463.28091
2429.96875	645.70331
2429.125	392.55869
2428.28027	391.21851
2427.43652	532.01105
2426.5918	429.92639
2425.74707	345.61356
2424.90234	329.37531
2424.05762	313.11688
2423.21289	459.55127
2422.36719	419.53604
2421.52246	568.79834
2420.67676	404.53876
2419.83106	456.11746
2418.98535	416.02472
2418.13867	511.83289
2417.29297	492.37183
2416.44629	534.90344
2415.60059	444.50876
2414.75391	475.16727
2413.90625	588.43073
2413.05957	636.70636
2412.21289	398.67386
2411.36523	500.00311
2410.51758	441.96371
2409.66992	519.5957
2408.82227	535.24383
2407.97461	471.25284
2407.12598	404.2905
2406.27832	487.65506
2405.42969	635.76801
2404.58106	489.18518
2403.73242	375.03262
2402.88379	475.88065
2402.03418	379.36469
2401.18555	409.46585
2400.33594	592.55945
2399.48633	475.39584
2398.63672	446.51511
2397.78711	347.01877
2396.93652	459.26874
2396.08691	380.33719
2395.23633	421.92535
2394.38574	389.98587
2393.53516	355.09201
2392.68457	161.51622
2391.83301	241.17493
2390.98242	499.96387
2390.13086	526.61426
2389.2793	500.37766
2388.42773	914.44751
2387.57617	521.22711
2386.72363	465.56045
2385.87207	462.71762
2385.01953	641.68927
2384.16699	213.49768
2383.31445	594.71027
2382.46191	348.39435
2381.6084	673.6712
2380.75586	263.27405
2379.90234	506.3515
2379.04883	391.92981
2378.19531	485.46805
2377.3418	514.52185
2376.48731	584.50427
2375.63379	505.17032
2374.7793	481.42322
2373.92481	536.66046
2373.07031	556.74347
2372.21582	541.69269
2371.36035	453.49142
2370.50586	555.36267
2369.65039	437.90564
2368.79492	475.36667
2367.93945	582.91571
2367.08398	290.14749
2366.22754	394.69354
2365.37207	487.5145
2364.51563	574.40949
2363.65918	465.65234
2362.80273	459.06433
2361.94629	332.80661
2361.08887	457.46472
2360.23242	526.64496
2359.375	543.25281
2358.51758	638.55817
2357.66016	480.15872
2356.80273	528.74793
2355.94434	597.66986
2355.08594	497.54037
2354.22852	513.97241
2353.37012	320.63861
2352.51172	377.79059
2351.65234	504.7489
2350.79394	489.01498
2349.93457	292.79352
2349.07617	233.40529
2348.2168	290.36154
2347.35742	507.25092
2346.49707	476.81094
2345.63769	428.93283
2344.77734	369.39529
2343.91699	609.22552
2343.05762	468.27792
2342.19629	510.3526
2341.33594	537.88293
2340.47559	655.40906
2339.61426	575.38605
2338.75293	782.78272
2337.8916	415.35196
2337.03027	422.4024
2336.16894	525.17334
2335.30664	456.69794
2334.44531	570.97144
2333.58301	664.85309
2332.7207	723.87915
2331.8584	614.72833
2330.99609	737.44952
2330.13281	839.78955
2329.26953	516.19104
2328.40723	592.43555
2327.54394	442.71295
2326.68066	455.1662
2325.81641	374.92871
2324.95313	491.53149
2324.08887	350.4953
2323.22461	461.19556
2322.36035	623.89496
2321.49609	682.3894
2320.63184	564.4505
2319.7666	429.15973
2318.90234	525.15387
2318.03711	517.0257
2317.17188	378.85284
2316.30566	445.78717
2315.44043	504.02801
2314.57519	611.31024
2313.70898	629.0014
2312.84277	542.74182
2311.97656	407.42596
2311.11035	644.36157
2310.24316	563.81641
2309.37695	598.67194
2308.50977	676.72253
2307.64258	495.22287
2306.77539	512.67401
2305.9082	504.15207
2305.04102	535.94916
2304.17285	567.68451
2303.30469	561.9342
2302.43652	432.32227
2301.56836	602.19153
2300.70019	541.66119
2299.83203	691.24292
2298.96289	455.10089
2298.09375	627.58374
2297.22461	779.83691
2296.35547	661.65448
2295.48633	641.25812
2294.61719	402.34515
2293.74707	542.89984
2292.87695	694.86865
2292.00684	671.48102
2291.13672	860.66083
2290.2666	529.86908
2289.39551	477.70718
2288.52539	505.95486
2287.6543	915.92804
2286.7832	898.08313
2285.91211	619.09784
2285.04004	546.73261
2284.16894	431.36707
2283.29688	829.33551
2282.42578	604.95215
2281.55273	303.1788
2280.68066	376.98831
2279.80859	619.81488
2278.93555	610.37299
2278.06348	480.62244
2277.19043	602.90039
2276.31738	570.48157
2275.44434	535.1875
2274.57031	499.85638
2273.69727	341.48059
2272.82324	426.31982
2271.94922	253.64026
2271.07519	601.54352
2270.20117	368.79523
2269.32617	699.31281
2268.45215	506.60239
2267.57715	219.60414
2266.70215	438.44571
2265.82715	440.05972
2264.95215	298.83298
2264.07617	340.37701
2263.20117	616.02936
2262.32519	594.64496
2261.44922	430.53803
2260.57324	443.38834
2259.69727	290.73599
2258.82031	748.51276
2257.94336	470.30148
2257.06738	374.68231
2256.19043	484.30774
2255.3125	457.02835
2254.43555	270.17709
2253.55859	527.83807
2252.68066	594.49567
2251.80273	501.61084
2250.92481	491.31351
2250.04688	398.43481
2249.16797	527.56061
2248.29004	349.28384
2247.41113	358.81732
2246.53223	558.9209
2245.65332	571.20398
2244.77441	543.64618
2243.89453	638.30389
2243.01563	465.72348
2242.13574	563.15167
2241.25586	404.78491
2240.37598	618.61554
2239.49609	517.05756
2238.61523	460.92624
2237.73535	322.47705
2236.85449	652.42426
2235.97363	505.40295
2235.09277	613.80188
2234.21094	398.6803
2233.33008	651.67273
2232.44824	524.49432
2231.56641	493.74509
2230.68457	448.80978
2229.80273	701.47565
2228.9209	475.10306
2228.03809	469.76477
2227.15527	277.44376
2226.27344	340.09369
2225.39063	430.98801
2224.50684	425.5398
2223.62402	493.68866
2222.74023	757.03217
2221.85644	711.84045
2220.97363	533.70697
2220.08887	751.54004
2219.20508	547.94415
2218.32129	629.9577
2217.43652	819.30676
2216.55176	333.10028
2215.66699	559.11865
2214.78223	567.49377
2213.89746	547.5968
2213.01172	488.12228
2212.12695	547.25641
2211.24121	538.56989
2210.35547	433.9024
2209.46875	365.91046
2208.58301	376.94141
2207.69629	514.85303
2206.81055	97.13538
2205.92383	531.06305
2205.03711	429.17029
2204.14941	245.53032
2203.26269	566.38727
2202.375	484.17389
2201.48828	373.82477
2200.60059	654.94641
2199.71191	462.85132
2198.82422	214.52589
2197.93652	433.52197
2197.04785	235.88248
2196.15918	592.58698
2195.27051	409.01257
2194.38184	664.24707
2193.49316	601.60022
2192.60352	552.98785
2191.71387	301.98346
2190.82422	354.57532
2189.93457	586.95489
2189.04492	425.91916
2188.15527	214.36459
2187.26465	412.84381
2186.37402	249.03377
2185.4834	461.41992
2184.59277	334.10486
2183.70215	383.59644
2182.81055	407.77133
2181.91992	333.767
2181.02832	329.85327
2180.13672	418.44659
2179.24512	448.11441
2178.35254	320.76459
2177.46094	291.5473
2176.56836	307.12106
2175.67578	443.11621
2174.7832	492.21829
2173.89063	420.87463
2172.99707	528.68158
2172.10449	247.39003
2171.21094	352.3468
2170.31738	521.59338
2169.42383	22.17969
2168.5293	524.17847
2167.63574	374.45023
2166.74121	549.0398
2165.84668	628.50348
2164.95215	456.39404
2164.05762	373.74182
2163.16309	436.36719
2162.26758	233.58113
2161.37207	167.68506
2160.47754	442.43848
2159.58106	351.33658
2158.68555	369.11865
2157.79004	272.46872
2156.89356	276.24158
2155.99707	497.5542
2155.10059	133.12927
2154.2041	320.88385
2153.30762	274.38251
2152.41016	319.82761
2151.51367	518.51953
2150.61621	469.13269
2149.71875	506.09457
2148.82031	476.15643
2147.92285	237.40582
2147.02441	271.51898
2146.12695	383.55615
2145.22852	147.65739
2144.33008	70.4173
2143.43066	374.25207
2142.53223	486.07562
2141.63281	389.26321
2140.7334	437.03159
2139.83398	329.10736
2138.93457	354.59708
2138.03516	338.37967
2137.13477	211.00604
2136.23438	303.07388
2135.33398	161.83223
2134.43359	351.00482
2133.5332	776.02332
2132.63281	593.08514
2131.73144	498.96072
2130.83008	607.36603
2129.92871	341.27283
2129.02734	604.9184
2128.12598	513.55975
2127.22363	336.25833
2126.32129	433.37949
2125.41992	6.76913
2124.51758	198.07165
2123.61426	480.65723
2122.71191	693.90991
2121.80859	555.40082
2120.90527	511.04718
2120.00293	558.04938
2119.09863	616.03296
2118.19531	145.57855
2117.29199	283.82281
2116.38769	408.14063
2115.4834	380.31735
2114.5791	344.19293
2113.67481	612.09363
2112.76953	487.44598
2111.86523	586.64508
2110.95996	304.5636
2110.05469	359.5094
2109.14941	403.36932
2108.24414	256.7059
2107.33789	225.9828
2106.43164	589.87714
2105.52637	542.53668
2104.62012	464.82623
2103.71289	287.81223
2102.80664	226.69063
2101.89941	317.17966
2100.99316	250.52805
2100.08594	244.4872
2099.17871	425.79089
2098.27051	411.39297
2097.36328	267.55783
2096.45508	404.61496
2095.54688	274.5423
2094.63867	386.73642
2093.73047	507.12512
2092.82227	467.85886
2091.91309	161.71368
2091.00391	61.95863
2090.0957	316.99747
2089.18555	472.88669
2088.27637	337.34338
2087.36719	226.57136
2086.45703	151.52045
2085.54688	466.59638
2084.63672	147.03365
2083.72656	234.01982
2082.81641	238.58424
2081.90527	308.9873
2080.99414	464.42972
2080.08301	364.59711
2079.17188	220.89186
2078.26074	329.57974
2077.34961	408.04361
2076.4375	124.50079
2075.52539	276.93335
2074.61328	67.49757
2073.70117	323.9826
2072.78809	-140.2399
2071.87598	96.97958
2070.96289	380.62253
2070.04981	368.4151
2069.13672	123.49803
2068.22363	45.62334
2067.30957	241.39699
2066.39648	620.4198
2065.48242	301.69653
2064.56836	407.00623
2063.6543	657.18286
2062.73926	35.10592
2061.82519	405.49725
2060.91016	13.2406
2059.99512	230.42741
2059.08008	302.72965
2058.16504	263.00873
2057.24902	310.64597
2056.33301	273.61374
2055.41797	348.52304
2054.50098	278.69345
2053.58496	271.66101
2052.66894	-8.18508
2051.75195	388.45636
2050.83594	479.53583
2049.91894	254.27295
2049.00098	356.1658
2048.08398	139.16296
2047.16699	205.61453
2046.24902	318.31384
2045.33106	144.95992
2044.41309	77.8653
2043.49512	277.61014
2042.57617	224.07381
2041.6582	146.07794
2040.73926	100.72488
2039.82031	77.14327
2038.90137	382.6828
2037.98144	182.23256
2037.0625	384.28613
2036.14258	273.59814
2035.22266	350.47696
2034.30273	541.44415
2033.38281	308.49396
2032.46191	265.74002
2031.54199	54.63691
2030.62109	74.37478
2029.70019	-142.0876
2028.7793	130.07797
2027.85742	76.45783
2026.93652	50.00652
2026.01465	170.006
2025.09277	-16.5166
2024.1709	211.88802
2023.24902	407.65939
2022.32617	72.06162
2021.4043	335.51016
2020.48144	265.56043
2019.55859	43.927
2018.63574	269.24869
2017.71191	-228.54445
2016.78906	216.01193
2015.86523	216.44586
2014.94141	86.97197
2014.01758	257.86966
2013.09277	117.56898
2012.16894	-36.18447
2011.24414	-22.25913
2010.31934	-21.8681
2009.39453	-16.07966
2008.46973	186.97934
2007.54394	244.01437
2006.61914	52.50928
2005.69336	-33.62115
2004.76758	204.32208
2003.8418	277.46799
2002.91504	391.03958
2001.98926	248.1985
2001.0625	-61.91784
2000.13574	318.70401
1999.20898	68.01726
1998.28223	216.52983
1997.35449	135.77339
1996.42676	87.38834
1995.5	526.85492
1994.57227	173.90625
1993.64356	279.05032
1992.71582	112.12635
1991.78711	31.40662
1990.8584	362.65845
1989.92969	-35.74304
1989.00098	217.32332
1988.07227	-27.52715
1987.14258	171.58884
1986.21387	233.46558
1985.28418	349.06677
1984.35449	198.43124
1983.42383	260.18835
1982.49414	198.30618
1981.56348	458.87741
1980.63281	-81.28378
1979.70215	-38.35115
1978.77148	458.42151
1977.84082	353.53818
1976.90918	-19.79161
1975.97754	208.2365
1975.0459	251.00932
1974.11426	339.36682
1973.18262	328.43405
1972.25	261.15301
1971.31738	510.29288
1970.38477	397.41626
1969.45215	289.93729
1968.51953	359.36197
1967.58691	447.50674
1966.65332	433.79413
1965.71973	291.52451
1964.78613	462.59644
1963.85254	472.96506
1962.91797	547.53528
1961.98438	231.39026
1961.04981	557.47241
1960.11523	236.06071
1959.18066	366.76459
1958.24512	577.60425
1957.31055	341.91461
1956.375	194.49376
1955.43945	346.43698
1954.50391	450.22095
1953.56836	14.34572
1952.63184	211.59715
1951.69531	459.50409
1950.75977	611.22229
1949.82227	10.09541
1948.88574	284.56909
1947.94922	526.91351
1947.01172	360.979
1946.07422	291.12253
1945.13672	474.61957
1944.19922	167.47803
1943.26172	484.198
1942.32324	544.9209
1941.38477	389.78876
1940.44629	463.81924
1939.50781	26.43045
1938.56934	278.91544
1937.62988	358.21448
1936.69141	509.37707
1935.75195	282.53751
1934.8125	489.50189
1933.87207	63.19875
1932.93262	310.01736
1931.99219	240.25816
1931.05176	239.65099
1930.11133	300.1803
1929.1709	387.26224
1928.23047	163.41836
1927.28906	186.70433
1926.34766	318.88113
1925.40625	307.60126
1924.46484	309.60111
1923.52344	178.87105
1922.58106	218.02141
1921.63867	262.46551
1920.69629	378.51993
1919.75391	364.55774
1918.81152	512.37012
1917.86816	249.12797
1916.92578	25.77885
1915.98242	340.51608
1915.03906	310.64945
1914.09473	442.37723
1913.15137	568.78162
1912.20703	409.09714
1911.26269	453.35217
1910.31836	404.93942
1909.37402	552.40002
1908.42969	797.71265
1907.48438	431.75726
1906.53906	253.75177
1905.59375	401.10446
1904.64844	387.11038
1903.70313	566.10364
1902.75684	234.896
1901.81055	178.6427
1900.86426	465.87125
1899.91797	428.08954
1898.97168	540.85626
1898.02441	196.76259
1897.07715	726.61414
1896.12988	395.82108
1895.18262	490.01645
1894.23535	357.2804
1893.28809	432.98801
1892.33984	600.94733
1891.3916	615.91119
1890.44336	633.50653
1889.49512	598.38593
1888.5459	434.12891
1887.59766	164.5806
1886.64844	174.33948
1885.69922	318.41019
1884.74902	551.93097
1883.79981	356.27417
1882.84961	671.2962
1881.90039	686.22485
1880.95019	606.41071
1879.99902	495.0415
1879.04883	415.30377
1878.09766	472.31201
1877.14746	597.67853
1876.19629	717.71899
1875.24414	595.92377
1874.29297	426.91495
1873.3418	554.81323
1872.38965	553.94855
1871.4375	424.42682
1870.48535	502.3595
1869.53223	519.87335
1868.58008	232.99649
1867.62695	484.07996
1866.67383	192.06367
1865.7207	348.6528
1864.76758	402.91971
1863.81348	341.79211
1862.86035	692.24316
1861.90625	327.10458
1860.95215	318.45294
1859.99805	652.97583
1859.04297	678.29828
1858.08887	357.99674
1857.13379	653.03992
1856.17871	500.37927
1855.22266	496.93082
1854.26758	412.40576
1853.31152	403.76117
1852.35644	337.6124
1851.40039	159.03191
1850.44336	607.95734
1849.48731	442.4805
1848.53027	397.2677
1847.57422	391.29929
1846.61719	403.60104
1845.65918	321.85873
1844.70215	472.58575
1843.74512	296.9191
1842.78711	679.8963
1841.8291	559.05627
1840.87109	315.64142
1839.91211	463.60907
1838.9541	392.46863
1837.99512	308.30087
1837.03613	388.42789
1836.07715	220.90645
1835.11816	16.97495
1834.1582	633.86444
1833.19922	320.54288
1832.23926	205.27502
1831.2793	563.99609
1830.31836	328.96256
1829.3584	289.2829
1828.39746	611.34699
1827.43652	548.20721
1826.47559	557.94367
1825.51465	570.289
1824.55273	124.94898
1823.5918	223.19592
1822.62988	565.73053
1821.66797	123.29244
1820.70606	276.05759
1819.74316	262.49173
1818.78027	293.09622
1817.81836	136.76094
1816.85547	442.60877
1815.8916	268.1106
1814.92871	368.81558
1813.96484	500.60455
1813.00098	500.051
1812.03711	317.95578
1811.07324	475.64911
1810.10938	361.06665
1809.14453	490.18033
1808.17969	318.62985
1807.21484	346.67706
1806.25	201.15802
1805.28516	397.59827
1804.31934	513.67682
1803.35352	686.68176
1802.38769	598.19519
1801.42188	357.06689
1800.45606	475.70911
1799.48926	511.51193
1798.52344	526.65057
1797.55664	534.0166
1796.58887	339.70972
1795.62207	559.10236
1794.6543	362.31653
1793.6875	243.164
1792.71973	356.55405
1791.75195	485.41312
1790.7832	671.02411
1789.81543	298.93289
1788.84668	200.59978
1787.87793	249.42567
1786.90918	207.94196
1785.93945	452.82037
1784.9707	269.49127
1784.00098	578.76288
1783.03125	490.88754
1782.06152	65.38689
1781.0918	469.92508
1780.12109	377.0022
1779.15039	155.32745
1778.18066	276.34045
1777.20898	335.47684
1776.23828	260.75238
1775.26758	487.24338
1774.2959	376.50284
1773.32422	288.98389
1772.35254	255.54413
1771.37988	263.2659
1770.4082	551.32086
1769.43555	399.61966
1768.46289	427.93182
1767.49023	281.49381
1766.51758	194.23538
1765.54394	330.50473
1764.57129	261.2915
1763.59766	48.29777
1762.62402	43.37289
1761.64941	110.32026
1760.67578	169.58624
1759.70117	269.87909
1758.72656	0.74526
1757.75195	460.15561
1756.77734	342.42862
1755.80176	227.31316
1754.82617	560.84387
1753.85156	325.34827
1752.875	317.96549
1751.89941	-12.1504
1750.92383	154.77101
1749.94727	411.25034
1748.9707	421.87079
1747.99414	376.19699
1747.01758	535.29938
1746.04004	159.57561
1745.0625	428.68497
1744.08496	687.47919
1743.10742	452.66537
1742.12988	164.27887
1741.15137	402.57489
1740.17383	474.70547
1739.19531	454.82553
1738.2168	192.29341
1737.23731	318.08908
1736.25879	385.14941
1735.2793	367.93631
1734.29981	567.72003
1733.32031	415.2702
1732.34082	505.30182
1731.36035	528.97479
1730.38086	203.26855
1729.40039	576.39343
1728.41992	490.48865
1727.43848	475.99545
1726.45801	400.39304
1725.47656	464.96426
1724.49512	623.78961
1723.51367	716.36139
1722.53223	803.82813
1721.54981	481.37552
1720.56738	958.33386
1719.58496	674.20917
1718.60254	1049.21826
1717.62012	1268.92981
1716.63672	1287.63489
1715.6543	2097.20654
1714.6709	3000.52612
1713.68652	3888.23853
1712.70313	5624.44238
1711.71973	6590.11768
1710.73535	6605.34375
1709.75098	5609.76025
1708.7666	4193.08887
1707.78125	3330.44238
1706.79688	2161.06567
1705.81152	1725.57519
1704.82617	1409.53894
1703.84082	1197.66419
1702.85449	859.07483
1701.86914	901.02918
1700.88281	897.34149
1699.89648	1055.90564
1698.91016	770.95807
1697.92285	453.19714
1696.93652	475.06064
1695.94922	702.06812
1694.96191	516.27936
1693.97461	619.20227
1692.98633	542.38702
1691.99902	453.00134
1691.01074	295.35043
1690.02246	749.95868
1689.03418	352.11337
1688.04492	444.98584
1687.05664	292.64975
1686.06738	706.56305
1685.07813	443.09366
1684.08887	793.7124
1683.09863	830.97766
1682.1084	474.27862
1681.11914	625.30524
1680.12891	738.41632
1679.13769	687.43835
1678.14746	641.58087
1677.15625	439.33386
1676.16504	696.29144
1675.17383	567.32092
1674.18262	410.69971
1673.19043	465.9183
1672.19922	647.19159
1671.20703	712.49243
1670.21484	367.13355
1669.22168	885.92181
1668.22949	633.92139
1667.23633	621.24042
1666.24316	762.16199
1665.25	477.70956
1664.25684	807.40485
1663.26269	447.63519
1662.26953	626.35675
1661.27539	764.78552
1660.28027	206.69919
1659.28613	702.20013
1658.29199	544.06836
1657.29688	828.27936
1656.30176	974.23492
1655.30664	881.54657
1654.31055	904.43597
1653.31543	653.69446
1652.31934	987.97644
1651.32324	787.57202
1650.32715	968.7041
1649.33008	1097.09656
1648.33398	967.14179
1647.33691	990.23676
1646.33984	1045.95483
1645.34277	1417.54394
1644.34473	1355.4198
1643.34668	2012.51489
1642.34961	2000.49963
1641.35156	2767.48828
1640.35254	3574.25879
1639.35449	3940.10278
1638.35547	4180.6626
1637.35644	4150.86963
1636.35742	3950.979
1635.3584	3621.1228
1634.3584	3123.84229
1633.35938	3111.9563
1632.35938	2620.0625
1631.35938	2348.38184
1630.3584	2574.17407
1629.3584	2385.15405
1628.35742	2071.32642
1627.35644	2084.86255
1626.35547	2006.04224
1625.35449	1847.40259
1624.35254	1935.97144
1623.35059	1258.38354
1622.34863	1421.97669
1621.34668	1730.23938
1620.34473	1709.19128
1619.3418	1486.19641
1618.33887	1201.00647
1617.33594	1185.17981
1616.33301	1523.28723
1615.3291	1270.771
1614.32617	1289.94971
1613.32227	1269.2981
1612.31836	1296.01269
1611.31445	1594.13062
1610.30957	1488.91882
1609.30469	1580.39795
1608.30078	1990.37537
1607.29492	1840.49353
1606.29004	1429.58875
1605.28516	1894.17615
1604.2793	2137.34521
1603.27344	2380.45972
1602.26758	2705.53149
1601.26074	3144.79321
1600.25488	2846.16894
1599.24805	2406.13501
1598.24121	2398.37964
1597.23438	2619.07056
1596.22656	2196.85034
1595.21973	2377.88159
1594.21191	2008.07861
1593.2041	2325.58765
1592.19629	2548.77222
1591.1875	2975.2229
1590.17969	3882.50122
1589.1709	4791.92285
1588.16211	7242.3623
1587.15234	10774.53125
1586.14356	13698.45606
1585.13379	16353.76367
1584.12402	17311.96484
1583.11426	16546.85547
1582.10449	16326.60938
1581.09375	16589.01953
1580.08398	17467.42188
1579.07324	18847.62695
1578.06152	19144.12305
1577.05078	17603.48242
1576.03906	15373.80664
1575.02832	13026.46973
1574.0166	10798.72852
1573.00391	8720.15723
1571.99219	7168.6084
1570.97949	6430.19434
1569.96777	5413.14746
1568.9541	4865.55713
1567.94141	4118.3418
1566.92871	3988.36206
1565.91504	3621.63916
1564.90137	3563.42969
1563.88769	2920.85278
1562.87402	3084.81104
1561.85938	2805.04077
1560.84473	2725.06348
1559.83008	2842.2898
1558.81543	3284.70581
1557.80078	3190.06006
1556.78516	3693.88013
1555.76953	3586.97632
1554.75391	3334.93872
1553.73828	3398.06836
1552.72266	2927.29468
1551.70606	3465.35522
1550.68945	3681.05566
1549.67285	3338.5332
1548.65625	3229.76074
1547.63867	3138.27979
1546.62207	3415.53076
1545.60449	3311.87451
1544.58691	3358.16382
1543.56836	3048.35498
1542.55078	2709.27612
1541.53223	3246.81445
1540.51367	2834.29688
1539.49512	2441.63599
1538.47559	2633.11401
1537.45703	2360.96509
1536.4375	2324.41089
1535.41797	2663.08643
1534.39844	2418.22095
1533.37793	2413.70044
1532.3584	2225.46338
1531.33789	2135.34717
1530.31738	2096.76636
1529.2959	2060.69556
1528.27539	2308.73877
1527.25391	1885.96777
1526.23242	2116.91821
1525.21094	1765.44006
1524.18848	2165.23438
1523.16699	1894.72681
1522.14453	1719.75195
1521.12207	1931.22192
1520.09961	1614.64441
1519.07617	1826.15686
1518.05371	1529.39905
1517.03027	1660.34277
1516.00684	1979.3667
1514.98242	2056.54761
1513.95898	2094.70483
1512.93457	2062.10522
1511.91016	2349.29126
1510.88574	3060.98975
1509.86133	2657.5813
1508.83594	2212.9231
1507.81055	2300.11548
1506.78516	2614.07251
1505.75977	2264.94312
1504.73438	1986.69373
1503.70801	2018.05469
1502.68164	1852.14172
1501.65527	2032.21106
1500.62891	2051.55176
1499.60156	2134.23779
1498.57422	2097.67993
1497.54785	2160.9895
1496.51953	1808.25415
1495.49219	1618.72058
1494.46387	1696.84985
1493.43652	2037.63184
1492.4082	2363.74097
1491.37891	1877.94702
1490.35059	2274.55615
1489.32129	1920.30542
1488.29199	2151.68091
1487.26269	2191.16528
1486.2334	2162.70972
1485.20313	2233.854
1484.17383	2161.84106
1483.14356	2638.33252
1482.11328	2612.48438
1481.08203	2547.88892
1480.05176	2500.3728
1479.02051	3126.98511
1477.98926	3171.60938
1476.95703	3313.21777
1475.92578	3210.10107
1474.89356	3666.72266
1473.86133	3561.2749
1472.8291	3596.39844
1471.79688	4016.53833
1470.76367	4194.49561
1469.73144	5071.89209
1468.69824	5847.36377
1467.66504	7234.6416
1466.63086	9347.03027
1465.59668	11035.42871
1464.56348	11475.66406
1463.5293	10871.53125
1462.49414	9400.0918
1461.45996	8320.76269
1460.42481	7964.24561
1459.38965	7149.04346
1458.35449	6780.97217
1457.31934	6968.39941
1456.2832	7568.56836
1455.24707	7965.8418
1454.21094	8442.64453
1453.17481	8813.17773
1452.13867	9260.80371
1451.10156	9749.29981
1450.06445	9661.47949
1449.02734	10306.50293
1447.99023	9678.94238
1446.95215	10268.41113
1445.91406	11683.9375
1444.87598	12694.35449
1443.83789	14836.11133
1442.79981	17497.05273
1441.76074	21283.37305
1440.72168	26901.86523
1439.68262	32272.72266
1438.64356	35765.24609
1437.60352	34720.78516
1436.56445	30392.41602
1435.52441	24652.38867
1434.48438	19477.1875
1433.44336	14628.5625
1432.40332	11165.7959
1431.36231	8506.76367
1430.32129	7071.22363
1429.28027	5950.86475
1428.23828	5174.29834
1427.19629	5060.51465
1426.15527	4462.15576
1425.11231	4571.80322
1424.07031	5141.99268
1423.02832	5640.07861
1421.98535	6015.75439
1420.94238	6559.13965
1419.89941	6745.29199
1418.85547	6849.96875
1417.81152	6341.42139
1416.76856	5940.93164
1415.72363	5397.00098
1414.67969	5004.19482
1413.63574	4791.14014
1412.59082	4561.48682
1411.5459	4698.06982
1410.50098	4480.63574
1409.45508	4368.59522
1408.41016	4622.51465
1407.36426	4804.68262
1406.31836	5087.23242
1405.27148	4841.625
1404.22559	4856.61426
1403.17871	4682.9624
1402.13184	5022.91113
1401.08496	4854.22266
1400.03809	4819.35791
1398.99023	4765.48145
1397.94238	5301.09668
1396.89453	5626.62158
1395.84668	5923.4624
1394.79785	6117.71045
1393.75	6860.33203
1392.70117	8093.771
1391.65234	8914.47168
1390.60254	9806.3916
1389.55371	10995.80273
1388.50391	13678.17676
1387.4541	17502.54297
1386.40332	23808.58203
1385.35352	34998.88672
1384.30273	52710.13281
1383.25195	74447.14063
1382.20117	84961.39063
1381.15039	87099.57813
1380.09863	88328.60938
1379.04688	89264.78906
1377.99512	89867.89844
1376.94336	90245.0625
1375.8916	90574.625
1374.83887	90792.48438
1373.78613	90772.82813
1372.7334	79593.38281
1371.67969	40441.64063
1370.62695	32502.85352
1369.57324	26843.0918
1368.51953	22839.35742
1367.46582	19008.13281
1366.41113	16807.78125
1365.35742	14603.67676
1364.30273	13047.70801
1363.24707	11817.15039
1362.19238	10449.74316
1361.13672	8914.77441
1360.08203	8031.87353
1359.02637	7042.84912
1357.96973	6703.0332
1356.91406	6254.54297
1355.85742	5789.74951
1354.80078	5443.53613
1353.74414	5719.70313
1352.6875	5217.7002
1351.62988	5787.17139
1350.57227	5266.60547
1349.51465	4992.15088
1348.45703	4975.47949
1347.39844	5417.25977
1346.34082	4918.76758
1345.28223	5164.50879
1344.22363	5159.93506
1343.16406	4777.71582
1342.10547	5462.58008
1341.0459	5264.68164
1339.98633	4644.625
1338.92578	5426.04004
1337.86621	5332.27295
1336.80566	5365.94238
1335.74512	5171.0166
1334.68457	5643.24561
1333.62402	5780.74609
1332.5625	6017.22266
1331.50098	6013.42822
1330.43945	6226.36279
1329.37793	5749.44434
1328.31543	5668.26416
1327.25293	5570.72266
1326.19043	5459.18408
1325.12793	5300.72217
1324.06543	5203.55518
1323.00195	4789.05273
1321.93848	4609.9082
1320.875	4501.43066
1319.81152	4270.87305
1318.74707	4465.76563
1317.68262	4301.25049
1316.61816	4270.74951
1315.55371	4371.83691
1314.48926	3914.22754
1313.42383	4022.54907
1312.3584	4194.26367
1311.29297	3885.02393
1310.22656	3986.48877
1309.16113	3935.55444
1308.09473	4027.74683
1307.02832	3775.38306
1305.96191	3734.13892
1304.89453	4149.92773
1303.82813	3363.78223
1302.76074	3845.2207
1301.69238	4211.79395
1300.625	3564.50659
1299.55664	3947.53394
1298.48926	3729.00928
1297.41992	3644.03735
1296.35156	3594.26318
1295.2832	3504.8313
1294.21387	3502.04248
1293.14453	3670.00195
1292.07519	3613.58106
1291.00488	3269.81909
1289.93457	3816.4773
1288.86523	3391.21143
1287.79394	3552.42554
1286.72363	3573.54346
1285.65332	3702.12451
1284.58203	3805.06396
1283.51074	3614.00952
1282.43848	3488.44605
1281.36719	3596.27075
1280.29492	3741.44605
1279.22266	3893.63916
1278.15039	3864.02173
1277.07813	4274.98828
1276.00488	4960.82861
1274.93164	5718.68701
1273.8584	6674.29346
1272.78516	7671.49902
1271.71094	8547.30957
1270.63672	8086.7041
1269.5625	7670.58838
1268.48828	7140.7168
1267.41406	6029.56543
1266.33887	4939.89404
1265.26367	4478.59912
1264.18848	5066.08301
1263.11328	4651.59961
1262.03711	4544.12793
1260.96094	4850.34863
1259.88477	5402.75049
1258.80859	6094.34912
1257.73144	5873.21631
1256.65527	6341.72705
1255.57813	5647.31592
1254.5	5612.30273
1253.42285	5150.49072
1252.34473	4844.37061
1251.2666	4480.47705
1250.18848	4184.05762
1249.11035	3795.11499
1248.03125	3647.45361
1246.95313	3648.22339
1245.87305	3720.90234
1244.79394	3680.13306
1243.71484	3715.87598
1242.63477	3073.3374
1241.55469	3671.83838
1240.47461	3321.32739
1239.39356	3334.31274
1238.31348	3483.84888
1237.23242	3492.32617
1236.15137	3223.40503
1235.06934	3689.84302
1233.98828	3684.6438
1232.90625	4162.50684
1231.82422	4460.0415
1230.74219	5212.5835
1229.65918	5221.26172
1228.57617	4890.59961
1227.49414	4927.18945
1226.41016	4421.4873
1225.32715	4386.79883
1224.24316	4022.30542
1223.15918	3766.44751
1222.07519	3856.68994
1220.99121	4050.71973
1219.90625	4136.41748
1218.82227	4076.95996
1217.73633	4489.97168
1216.65137	4499.73877
1215.56641	4468.12451
1214.48047	4123.44336
1213.39453	3792.79907
1212.30859	3763.89502
1211.22168	3562.49805
1210.13574	3193.29981
1209.04883	3284.39795
1207.96191	3442.23144
1206.87402	3738.04858
1205.78711	3300.47412
1204.69922	3936.51221
1203.61133	3414.22266
1202.52246	3445.9165
1201.43457	3420.23755
1200.3457	3571.48706
1199.25684	3630.9126
1198.16797	3355.24463
1197.0791	3782.04541
1195.98926	3685.59863
1194.89941	3625.97607
1193.80957	3614.61841
1192.71875	3582.71655
1191.62891	3949.81104
1190.53809	3489.37231
1189.44727	4301.08154
1188.35547	4344.98779
1187.26465	4013.26489
1186.17285	4206.23145
1185.08106	3961.84839
1183.98926	4734.08154
1182.89648	4357.10107
1181.80469	4605.05664
1180.71191	4933.06836
1179.61816	4984.25732
1178.52539	5108.6709
1177.43164	5070.78467
1176.33887	5730.18115
1175.24414	6206.56689
1174.15039	6456.60547
1173.05566	7081.28223
1171.96191	7214.69336
1170.86719	7581.05811
1169.77148	8278.39648
1168.67676	8270.1875
1167.58106	8300.86523
1166.48535	8491.31738
1165.38965	8392.05664
1164.29297	7873.27734
1163.19629	7699.09863
1162.10059	7121.54346
1161.00293	7332.94531
1159.90625	6821.95068
1158.80859	6705.40088
1157.71094	6276.90772
1156.61328	6260.86621
1155.51563	5898.82227
1154.41699	5632.62158
1153.31934	5168.58447
1152.21973	5392.02051
1151.12109	5422.05371
1150.02246	4963.13135
1148.92285	5118.46436
1147.82324	5482.96631
1146.72363	6040.59326
1145.62305	6850.32764
1144.52246	7871.10107
1143.42188	8687.06543
1142.32129	9677.63867
1141.2207	9201.01563
1140.11914	8701.97656
1139.01758	7467.83008
1137.91602	6590.54199
1136.81445	6026.77588
1135.71191	5472.40478
1134.60938	5312.93359
1133.50684	4793.08936
1132.4043	4960.39111
1131.30078	4712.9585
1130.19824	4900.73535
1129.09473	5083.98389
1127.99023	4843.69287
1126.88672	4995.30957
1125.78223	5210.33594
1124.67773	5153.7168
1123.57324	5672.00439
1122.46777	6217.30518
1121.36328	6373.34912
1120.25781	7350.375
1119.15234	8840.33691
1118.0459	9108.99219
1116.94043	9605.86523
1115.83398	9307.18457
1114.72754	9099.06348
1113.62012	7757.20557
1112.51367	7648.99414
1111.40625	7398.66553
1110.29883	6403.57568
1109.19043	6546.45459
1108.08301	6192.9082
1106.97461	6234.38086
1105.86621	6124.78272
1104.75781	5976.95752
1103.64844	5973.56494
1102.53906	5789.90918
1101.42969	5225.54492
1100.32031	5700.15137
1099.21094	5597.95117
1098.10059	5471.09668
1096.99023	5619.05957
1095.87988	5116.43018
1094.76953	5687.66455
1093.6582	5612.91113
1092.54688	5214.28711
1091.43555	5684.11572
1090.32422	5488.15918
1089.21191	5409.27246
1088.09961	5894.69385
1086.98731	5831.60547
1085.875	5910.16064
1084.76172	5454.09717
1083.64844	5571.01172
1082.53516	5660.98682
1081.42188	5917.11523
1080.30762	5582.88965
1079.19434	6070.18359
1078.08008	6023.36523
1076.96484	6149.35986
1075.85059	6501.84961
1074.73535	6488.78857
1073.62012	7477.83594
1072.50488	9313.71777
1071.38867	11460.36523
1070.27344	15409.59473
1069.15723	19348.27344
1068.04102	21451.30078
1066.92383	20967.58984
1065.80762	17641.33008
1064.69043	13906.99707
1063.57227	11190.11816
1062.45508	9615.2959
1061.33691	8224.60352
1060.21973	7487.45898
1059.10059	6779.77734
1057.98242	6441.21728
1056.86426	6563.19434
1055.74512	6734.33447
1054.62598	6726.76074
1053.50586	6533.89648
1052.38672	6350.07813
1051.2666	6565.98389
1050.14648	6333.24902
1049.02637	6874.94287
1047.90527	6258.64502
1046.78418	6383.15478
1045.66309	6543.33496
1044.54199	6843.94971
1043.41992	7365.17383
1042.29883	8525.79102
1041.17676	9868.68066
1040.05469	11776.85644
1038.93164	13187.64258
1037.80859	14348.49121
1036.68555	12928.77246
1035.5625	11957.05664
1034.43945	10369.41309
1033.31543	8889.28516
1032.19141	8061.54541
1031.06738	7685.63135
1029.94336	7392.18262
1028.81836	7196.7207
1027.69336	7434.75537
1026.56836	7377.21484
1025.44238	8101.71094
1024.31738	8579.39453
1023.19141	9303.40723
1022.06543	9711.91016
1020.93848	10146.93262
1019.8125	10637.26953
1018.68555	10865.65234
1017.55859	12047.79394
1016.43066	13205.09766
1015.30371	13233.35449
1014.17578	12691.94531
1013.04785	11641.05371
1011.91992	10504.22656
1010.79102	9274.88867
1009.66211	8688.42188
1008.5332	8102.2417
1007.4043	7651.39307
1006.27441	7676.68799
1005.14551	7520.52197
1004.01563	7517.13916
1002.88477	7677.5
1001.75488	7439.71826
1000.62402	7412.14502
999.49316	7565.89209
998.3623	7421.22607
997.23047	7546.2583
996.09863	7803.82129
994.9668	7705.69189
993.83496	7570.09228
992.70313	7668.6084
991.57031	7594.95703
990.4375	7764.12305
989.30469	7867.05176
988.1709	8009.69043
987.03711	8569.13769
985.9043	8566.06934
984.76953	8792.33789
983.63574	9115.5
982.50098	8717.97559
981.36621	8730.43262
980.23145	8557.88281
979.09668	9024.07813
977.96094	8983.71191
976.8252	9288.98828
975.68945	9120.97461
974.55273	8653.82129
973.41699	8673.04492
972.28027	8542.74316
971.14258	8566.45996
970.00586	8091.10693
968.86816	8066.58936
967.73047	8378.33203
966.59277	8011.0542
965.45508	8487.45703
964.31641	8509.08398
963.17773	8649.29004
962.03906	8398.69531
960.90039	9019.54981
959.76074	9291.27832
958.62109	9315.00195
957.48145	9544.90234
956.3418	10737.40625
955.20117	11918.47363
954.06055	12167.45898
952.91992	11918.87793
951.7793	11876.37109
950.6377	11152.64258
949.49609	10891.34375
948.35449	11186.33398
947.21191	12197.0918
946.07031	13067.32617
944.92773	15412.0957
943.78516	18075.29297
942.6416	20426.7793
941.49902	21556.99023
940.35547	20996.66797
939.21191	19293.34961
938.06738	17394.08594
936.92383	15805.88574
935.7793	14602.85938
934.63477	12882.72266
933.48926	12167.79492
932.34473	11311.25098
931.19922	11042.22363
930.05371	10701.30176
928.90723	10539.44629
927.76172	10170.41797
926.61523	10218.09375
925.46875	10082.60059
924.32129	9748.81445
923.1748	9894.61523
922.02734	9944.49805
920.87988	9835.32129
919.73145	9795.9043
918.58398	10244.24805
917.43555	9749.73633
916.28711	10317.61719
915.1377	10136.66894
913.98926	10053.67773
912.83984	10059.91504
911.69043	10118.33398
910.54004	10087.59082
909.39063	10485.07519
908.24023	10699.83594
907.08984	11555.49902
905.93848	12478.14941
904.78809	13161.4541
903.63672	13583.88965
902.48438	12564.56738
901.33301	12172.94434
900.18066	11599.20019
899.0293	11444.41211
897.87598	11077.125
896.72363	11076.47656
895.57031	10791.78613
894.41699	10754.32227
893.26367	10985.61133
892.11035	10640.38379
890.95605	10401.45898
889.80176	10567.64453
888.64746	10794.37402
887.49316	10720.04004
886.33789	10981.24121
885.18262	11307.22559
884.02734	11269.55566
882.87109	11779.17871
881.71582	12632.41016
880.55957	13898.25977
879.40332	16257.41016
878.24609	18250.27344
877.08887	18435.76172
875.93164	17355.13867
874.77441	15274.88769
873.61719	13931.87793
872.45898	13269.52637
871.30078	12134.69238
870.14258	11928.29688
868.9834	11816.9082
867.8252	11604.12695
866.66602	12161.36231
865.50586	11914.05664
864.34668	12906.38281
863.18652	13178.38379
862.02637	12846.86523
860.86621	12756.73731
859.70508	12110.91113
858.54492	12111.3418
857.38379	11747.88965
856.22168	11836.60449
855.06055	11576.58203
853.89844	11759.87695
852.73633	11641.88477
851.57422	11478.73047
850.41113	11661.80957
849.24805	11434.14941
848.08496	11847.03906
846.92188	11468.91602
845.75781	11847.16211
844.59375	11829.97656
843.42969	11872.87305
842.26563	11838.4043
841.10059	11979.93262
839.93652	11599.82422
838.77051	12073.82813
837.60547	11846.07715
836.43945	11631.25293
835.27441	11941.78906
834.10742	12033.50488
832.94141	11957.91894
831.77441	11436.60059
830.6084	11693.13184
829.44043	11902.40137
828.27344	11741.02344
827.10547	11960.77148
825.9375	11917.06738
824.76953	12425.47461
823.60156	12017.81445
822.43262	12348.30859
821.26367	12522.46289
820.09473	12298.75488
818.9248	12338.04102
817.75586	12481.95508
816.58594	12510.3584
815.41504	12442.55566
814.24512	12402.45898
813.07422	12415.71289
811.90332	12505.74707
810.73242	12412.08984
809.56055	12847.68652
808.38965	13065.36523
807.2168	13291.43652
806.04492	13542.9082
804.87305	13079.86523
803.7002	12990.0293
802.52734	13083.45313
801.35352	13191.6875
800.18066	12871.54883
799.00684	13224.57031
797.83301	13174.86133
796.6582	13148.52441
795.48438	12934.77734
794.30957	13338.22852
793.13477	13543.53516
791.95898	13997.57129
790.78418	14076.98535
789.6084	14030.83301
788.43262	13916.58008
787.25586	13900.06641
786.0791	13541.3418
784.90234	13567.21582
783.72559	13595.11133
782.54883	13854.37402
781.37109	14200.48926
780.19336	14047.52051
779.01563	14728.56055
777.83691	14899.99414
776.6582	14975.78711
775.47949	14648.48047
774.30078	15188.46484
773.12109	15257.49414
771.94238	14590.90039
770.7627	14598.36621
769.58203	14018.87891
768.40234	14151.21875
767.22168	14387.16992
766.04102	14201.58008
764.85938	14090.06055
763.67871	14295.91309
762.49707	13885.86426
761.31543	14357.99902
760.13281	14013.45606
758.9502	14218.71582
757.76758	14172.19922
756.58496	14349.62305
755.40234	14588.13281
754.21875	14224.32324
753.03516	14851.17969
751.85156	14989.82422
750.66699	14902.38965
749.48242	15591.66016
748.29785	15685.38086
747.11328	16194.59082
745.92773	17562.02148
744.74316	18104.0957
743.55762	18907.2832
742.37109	19379.0293
741.18555	19001.04492
739.99902	18677.89063
738.8125	18527.49805
737.625	19162.69141
736.4375	20425.01172
735.25098	23629.9043
734.0625	29481.2832
732.875	38743.42969
731.68652	50071.78906
730.49805	57957.89453
729.30957	57857.07813
728.12012	49511.6875
726.93164	40024.06641
725.74219	32465.59766
724.55176	26637.51758
723.3623	23259.27148
722.17188	21291.69531
720.98145	20351.68164
719.79004	20171.94141
718.59961	20050.89453
717.4082	19854.20703
716.2168	19812.71094
715.02441	19448.05078
713.83301	18905.125
712.64063	17949.23242
711.44824	17234.66602
710.25488	16859.7832
709.06152	16028.11621
707.86816	16145.64844
706.6748	16168.71777
705.48145	15852.38769
704.28711	15768.41894
703.09277	15550.36914
701.89746	15177.39746
700.70313	15210.30078
699.50781	15330.88574
698.3125	15298.58398
697.11621	14994.32617
695.9209	15248.15723
694.72461	15315.70898
693.52832	15029.93652
692.33105	15184.90625
691.13379	15408.55664
689.93652	15596.4375
688.73926	15420.80566
687.54199	14986.25879
686.34375	15457.38184
685.14551	15129.05957
683.94727	14831.99121
682.74805	15548.38086
681.54883	15196.78027
680.34961	15016.07813
679.15039	15291.67578
677.9502	15456.54004
676.75	15296.17481
675.5498	15304.38867
674.34863	15264.52148
673.14844	15507.60254
671.94727	15683.78516
670.74609	15514.27148
669.54395	15627.58008
668.3418	15565.92481
667.13965	15616.39551
665.9375	15674.96289
664.73438	15608.58984
663.53125	15400.7334
662.32813	15730.89258
661.125	15408.44629
659.9209	15690.29199
658.7168	15415.3457
657.5127	15632.30664
656.30859	15496.13672
655.10352	15720.87305
653.89844	15845.72266
652.69336	15860.38086
651.4873	15565.84668
650.28125	15806.11914
649.0752	15689.55957
647.86914	15873.31738
646.66211	15791.58398
645.45605	15906.4541
644.24805	15648.28418
643.04102	15655.0332
641.83301	16013.4668
640.625	16021.76074
639.41699	15868.4375
638.20898	16037.67188
637	15867.41504
635.79102	16011.31543
634.58203	15817.94531
633.37207	16649.61133
632.16211	16340.00586
630.95215	17179.00195
629.74219	18207.43164
628.53125	18884.11133
627.32031	19186.5625
626.10938	18089.11719
624.89746	17823.60352
623.68652	17033.89258
622.47461	16648.60352
621.26172	16042.56152
620.0498	15840.69043
618.83691	16242.68066
617.62402	15964.1084
616.41113	16010.98633
615.19727	15954.58789
613.9834	16178.08984
612.76953	16763.66992
611.55469	16562.28516
610.34082	16628.32422
609.12598	16562.37305
607.91113	16060.01856
606.69531	15999.88379
605.47949	16297.36035
604.26367	15695.92773
603.04785	15844.82422
601.83105	16044.7666
600.61426	15627.93457
599.39746	15849.91992
598.18066	15849.72461
596.96289	15719.90039
595.74512	15704.83106
594.52734	15878.33691
593.30859	16145.89258
592.09082	16056.08496
590.87109	15912.70117
589.65234	16304.36328
588.43359	16025.14258
587.21387	16286.91797
585.99316	16232.68848
584.77344	16092.16894
583.55273	16262.79102
582.33203	16058.27441
581.11133	16062.42285
579.89063	15990.54785
578.66895	16401.43555
577.44727	16394.42969
576.22461	16084.35059
575.00293	16383.65527
573.78027	16752.05859
572.55762	16492.36914
571.33398	16336.73535
570.11133	16317.81445
568.8877	16331.29004
567.66309	16424.125
566.43945	16545.23242
565.21484	17023.28906
563.99023	16731.26367
562.76563	16867.6582
561.54004	16444.60352
560.31445	16859.875
559.08887	17205.32031
557.8623	17427.95898
556.63672	17621.67188
555.41016	18954.3418
554.18262	19682.93164
552.95605	20535.19531
551.72852	20527.20117
550.50098	19421.27539
549.27344	18991.4707
548.04492	18539.14258
546.81641	18849.85938
545.58789	20657.62109
544.3584	24862.57813
543.12891	32091.5918
541.89941	40374.4375
540.66992	45116.17188
539.44043	42431.11719
538.20996	34786.87891
536.97949	27907.49609
535.74805	23403.08008
534.5166	20275.05859
533.28516	18514.40039
532.05371	17442.27148
530.82227	17135.33203
529.58984	16799.7793
528.35742	16644.57422
527.12402	16665.52539
525.8916	16268.49316
524.6582	16416.5625
523.4248	16199.45215
522.19043	16330.58106
520.95703	16550.47852
519.72168	16717.24414
518.4873	16865.39648
517.25293	17395.76758
516.01758	18615.71094
514.78223	21425.25586
513.5459	27085.7207
512.31055	34921.74219
511.07422	40088.73047
509.83691	38870.48438
508.60059	32680.09766
507.36328	26441.54297
506.12598	21728.76367
504.88867	19239.6543
503.65039	17480.31055
502.41211	16585.55273
501.17383	16153.09961
499.93457	15966.68262
498.69629	15745.71875
497.45703	15560.78809
496.2168	15643.7959
494.97754	15417.93457
493.7373	15439.75586
492.49707	15533.76367
491.25586	15548.76465
490.01563	15291.45117
488.77441	15394.40332
487.53223	15255.27051
486.29102	15377.59961
485.04883	15376.69824
483.80664	14721.40234
482.56348	15291.28809
481.32129	14714.02344
480.07813	14739.93848
478.83496	14588.54199
477.59082	14802.66602
476.34668	15136.91504
475.10254	15422.42481
473.8584	15022.41504
472.61328	15268.88867
471.36816	15446.60938
470.12305	15433.16699
468.87793	16182.05176
467.63184	16510.80859
466.38574	17051.69922
465.13965	17537.82227
463.89258	18833.47266
462.64551	21645.86914
461.39844	25585.14844
460.15039	28231.69336
458.90332	28971.3418
457.65527	26535.30859
456.40625	22702.0625
455.1582	19608.98438
453.90918	17743.94922
452.66016	16559.80859
451.41016	16012.05273
450.16113	15372.1709
448.91113	15146.14941
447.66016	14625.86621
446.41016	14591.24902
445.15918	14580.2041
443.9082	14542.79688
442.65723	14483.03516
441.40527	14354.95996
440.15332	13909.03223
438.90137	14165.67773
437.64844	14040.52637
436.39551	13899.06836
435.14258	13799.17285
433.88965	13495.46484
432.63574	13761.82129
431.38184	13981.79688
430.12793	13746.78223
428.87305	13967.81738
427.61914	13875.56836
426.36426	14506.04688
425.1084	15247.33008
423.85352	15856.50781
422.59766	16345.52344
421.34082	16035.75
420.08496	15150.67676
418.82813	14293.39941
417.57129	13475.87402
416.31445	12984.42676
415.05664	12824.76172
413.79883	12163.86133
412.54102	12494.48047
411.28223	12413.22754
410.02441	12228.35547
408.76563	12545.54785
407.50586	11960.73242
406.24707	12076.52832
404.9873	11850.46484
403.72656	11798.64551
402.4668	12024.20215
401.20605	11844.6084
399.94531	11989.86426
398.68457	12007.76856
397.42285	11900.33496
396.16113	11582.48926
394.89941	11838.88379
393.63672	11674.79883
392.375	11789.62891
391.1123	12250.40137
389.84863	11606.02832
388.58496	11887.64648
387.32227	11941.24707
386.05762	12362.21094
384.79395	12272.40625
383.5293	12456.98926
382.26465	12818.96875
381	13415.5459
379.73438	14766.14844
378.46875	15977.44824
377.20313	17689.42578
375.93652	19171.11914
374.66992	20146.36914
373.40332	19948.42578
372.13672	19377.20508
370.86914	17535.30664
369.60156	15831.85547
368.33398	14633.54394
367.06543	13776.33496
365.79785	13370.50586
364.5293	12093.37695
363.25977	12116.61621
361.99023	11849.87598
360.7207	11358.33398
359.45117	11175.68457
358.18164	10882.46094
356.91113	11069.06152
355.64063	10725.88965
354.36914	10307.63379
353.09766	10347.36328
351.82617	9895.09277
350.55469	9706.01074
349.2832	10279.13281
348.01074	9986.95606
346.73828	9765.20215
345.46484	9731.60156
344.19141	9583.70117
342.91797	9818.24707
341.64453	9451.67383
340.37012	9147.56641
339.0957	8956.95313
337.82129	9181.80664
336.54688	8692.3457
335.27148	8641.76856
333.99609	8931.83398
332.7207	8758.87207
331.44434	8644.26563
330.16797	8290.31152
328.8916	8564.71582
327.61426	8274.625
326.33691	8318.96387
325.05957	8006.6748
323.78223	8106.93848
322.50391	7770.44043
321.22559	7906.95264
319.94727	7865.04102
318.66797	7830.47461
317.38965	7903.06201
316.10938	7900.79639
314.83008	7673.52246
313.5498	7820.84766
312.26953	8135.61572
310.98926	7918.80762
309.70801	8322.27539
308.42676	8969.05762
307.14551	9381.01563
305.86426	9382.76367
304.58203	9939.78418
303.2998	10028.22461
302.0166	9814.00488
300.73438	9973.69238
299.45117	9197.61914
298.16797	8848.06152
296.88379	8307.31445
295.59961	8000.0332
294.31543	8056.47754
293.03125	8040.47217
291.74609	7794.38867
290.46094	8186.05127
289.17578	8491.54492
287.88965	8957.80078
286.60352	9557.56348
285.31738	10454.00684
284.03125	11540.06055
282.74414	12862.14648
281.45703	13538.40625
280.16895	13650.75
278.88184	13448.20703
277.59375	12301.9707
276.30469	11252.78906
275.0166	9613.95996
273.72754	8906.4043
272.43848	7649.96533
271.14941	6940.41211
269.85938	6569.90576
268.56934	5999.55371
267.2793	5626.67676
265.98828	5495.61523
264.69727	5211.21924
263.40625	5244.0835
262.11426	4372.46826
260.82324	4484.05713
259.53027	4353.17725
258.23828	4314.89844
256.94531	4610.74219
255.65234	4830.65137
254.35938	4827.76367
253.06641	5004.22559
251.77246	5066.13135
250.47852	5069.67041
249.18359	5088.18701
247.88867	4677.63232
246.59375	4052.59082
245.29883	3873.2981
244.00293	3151.38647
242.70703	3156.73828
241.41113	2679.51196
240.11523	2649.50586
238.81836	1670.50342
237.52148	1753.62292
236.22363	1578.02234
234.92578	1479.19531
233.62793	1254.84314
232.33008	962.81934
231.03125	1311.6167
229.7334	841.88794
228.43359	1103.14246
227.13477	480.86313
225.83496	574.00555
224.53516	543.66718
223.23438	41.8202
221.93457	487.64746
220.63379	133.32158
219.33203	370.52771
218.03125	209.71951
216.72949	280.93955
215.42773	480.43545
214.12523       	-94.24766
212.82227	60.32977
211.51953	304.68964
210.2168		-49.95475
208.91309	5.59337
207.60938	35.86042
206.30566	-129.76829
205.00098	37.77453
203.69629	9.45354
202.3916		206.8963
201.08691	82.13663