#Wave		#Intensity
3000.64844	1169.88709
2999.91016	1225.771
2999.17188	1217.28381
2998.43359	1181.70789
2997.69531	1085.20264
2996.95703	1188.43811
2996.21875	1203.64185
2995.47949	1059.80322
2994.74023	1115.61365
2994.00098	1049.63318
2993.26172	1166.29211
2992.52246	1090.17664
2991.7832	1115.50378
2991.04394	1140.81873
2990.30371	1088.39404
2989.56348	1127.21191
2988.82422	1108.58606
2988.08398	1157.51257
2987.34375	1145.63391
2986.60254	1272.18311
2985.86231	1287.28735
2985.12109	1336.13196
2984.38086	1266.85132
2983.63965	1447.2561
2982.89844	1455.55701
2982.15723	1389.65393
2981.41602	1455.2804
2980.67481	1591.67932
2979.93262	1495.43897
2979.19141	1608.18372
2978.44922	1650.12158
2977.70703	1671.82727
2976.96484	1797.94043
2976.22266	1917.26953
2975.47949	1942.27063
2974.73731	1933.59631
2973.99414	2049.45825
2973.25195	2182.10327
2972.50879	2361.80029
2971.76563	2507.78857
2971.02246	2562.90698
2970.2793	2772.69287
2969.53516	2878.16821
2968.79199	3235.7251
2968.04785	3522.56616
2967.30371	3580.79248
2966.55957	4058.96704
2965.81543	4513.4502
2965.07129	4880.44287
2964.32617	5421.91016
2963.58203	5775.16748
2962.83691	6336.4082
2962.0918	7001.48145
2961.34766	7367.67041
2960.60254	7737.07617
2959.85644	8139.88477
2959.11133	8254.12891
2958.36523	8495.74219
2957.62012	8217.63574
2956.87402	8063.64258
2956.12793	7514.25635
2955.38184	7316.88184
2954.63574	6848.22412
2953.88965	6433.32373
2953.14258	6065.45264
2952.39648	5476.7334
2951.64941	5176.11475
2950.90234	4805.31494
2950.15527	4354.33447
2949.4082	4030.65381
2948.66113	3877.68945
2947.91309	3497.34692
2947.16602	3384.65503
2946.41797	3165.01343
2945.66992	2998.93115
2944.92188	2792.80103
2944.17383	2840.6958
2943.42578	2731.5481
2942.67676	2766.06641
2941.92871	2780.5332
2941.17969	2781.63232
2940.43066	2839.48169
2939.68164	2717.06274
2938.93262	2731.51196
2938.18359	2529.07153
2937.43457	2370.06934
2936.68457	2334.53003
2935.93457	2052.22485
2935.18555	1956.73596
2934.43555	2047.95691
2933.68555	1695.85535
2932.93457	1807.07593
2932.18457	1598.4054
2931.43359	1513.05798
2930.68359	1437.73206
2929.93262	1419.03699
2929.18164	1360.39307
2928.43066	1288.45239
2927.67969	1206.54993
2926.92773	1207.8595
2926.17676	1215.82117
2925.42481	1057.45923
2924.67383	1085.39233
2923.92188	1129.93518
2923.16992	958.36713
2922.41699	1079.35669
2921.66504	1060.72351
2920.91309	829.44342
2920.16016	850.71808
2919.40723	958.33905
2918.6543	796.92908
2917.90137	864.67059
2917.14844	802.91833
2916.39551	751.14215
2915.6416	712.65265
2914.88867	730.57874
2914.13477	692.09992
2913.38086	713.33032
2912.62695	688.12561
2911.87305	649.6648
2911.11914	564.80756
2910.36426	639.05597
2909.61035	647.0044
2908.85547	625.12744
2908.10059	609.87952
2907.3457	561.51581
2906.59082	576.07819
2905.83594	488.00452
2905.08008	562.14453
2904.32519	484.02625
2903.56934	511.81021
2902.81348	499.88272
2902.05762	547.49139
2901.30176	472.72287
2900.5459	523.6181
2899.78906	455.483
2899.0332	526.1861
2898.27637	487.80856
2897.51953	436.22574
2896.76269	526.69983
2896.00586	422.27835
2895.24902	572.15204
2894.49121	477.65509
2893.73438	452.50967
2892.97656	463.67041
2892.21875	461.62463
2891.46094	608.03406
2890.70313	536.68726
2889.94531	438.97983
2889.1875	582.00446
2888.42871	421.67822
2887.66992	558.05157
2886.91211	493.35114
2886.15332	455.02701
2885.39453	532.01154
2884.63477	464.04156
2883.87598	501.47217
2883.11621	538.88306
2882.35742	418.27045
2881.59766	468.84
2880.83789	430.54019
2880.07813	497.53134
2879.31836	492.12677
2878.55762	365.03137
2877.79785	310.32196
2877.03711	423.29483
2876.27637	460.62112
2875.51563	323.74969
2874.75488	298.6423
2873.99414	352.3851
2873.23242	376.54044
2872.47168	331.72134
2871.70996	204.82695
2870.94824	288.07477
2870.18652	276.10425
2869.42481	211.62848
2868.66309	202.94943
2867.90137	286.12067
2867.13867	221.66419
2866.37598	271.99927
2865.61426	250.18512
2864.85156	359.49249
2864.08887	288.49899
2863.32519	237.18582
2862.5625	267.79471
2861.79883	298.3859
2861.03613	404.28918
2860.27246	339.87872
2859.50879	295.13052
2858.74512	400.96155
2857.98047	379.11612
2857.2168	376.90906
2856.45313	361.61325
2855.68848	267.81738
2854.92383	301.58923
2854.15918	345.15344
2853.39453	372.35263
2852.62988	386.46423
2851.86426	325.4046
2851.09961	277.4346
2850.33398	317.67368
2849.56836	312.1698
2848.80273	342.58319
2848.03711	395.83478
2847.27148	334.8158
2846.50488	283.60339
2845.73926	340.08707
2844.97266	266.04721
2844.20606	377.95303
2843.43945	346.32059
2842.67285	295.13196
2841.90625	341.75821
2841.13965	310.13724
2840.37207	197.05092
2839.60449	334.88388
2838.83691	332.5849
2838.06934	450.79187
2837.30176	510.33572
2836.53418	547.06268
2835.7666	505.64673
2834.99805	513.05835
2834.22949	608.32147
2833.46094	661.25079
2832.69238	798.72986
2831.92383	815.82165
2831.15527	1031.25232
2830.38574	1129.55969
2829.61719	1322.0918
2828.84766	1465.79834
2828.07813	1599.70019
2827.30859	1801.76965
2826.53906	2055.72949
2825.76953	2105.00195
2824.99902	2248.40796
2824.22949	2304.1106
2823.45898	2324.08325
2822.68848	2321.32886
2821.91797	1961.67932
2821.14746	1689.74243
2820.37695	1651.41638
2819.60547	1376.38196
2818.83398	1101.44434
2818.06348	1047.02673
2817.29199	908.35907
2816.52051	896.10931
2815.74902	793.14795
2814.97656	674.02191
2814.20508	571.13037
2813.43262	500.64853
2812.66016	397.81494
2811.88769	320.90851
2811.11523	376.70666
2810.34277	338.6496
2809.57031	297.3671
2808.79688	262.56119
2808.02441	302.14218
2807.25098	247.94025
2806.47754	167.89331
2805.7041	188.06181
2804.92969	101.58074
2804.15625	202.51382
2803.38281	61.14278
2802.6084	129.73848
2801.83398	53.00037
2801.05957	60.22387
2800.28516	102.94584
2799.51074	68.19471
2798.73535	72.16808
2797.96094	60.00821
2797.18555	76.87409
2796.41016	125.97717
2795.63477	158.93636
2794.85938	56.48648
2794.08398	79.76794
2793.30762	74.03126
2792.53223	52.18574
2791.75586	56.11066
2790.97949	50.36745
2790.20313	76.82221
2789.42676	-19.07718
2788.65039	74.9676
2787.87305	-8.03538
2787.09668	-33.09129
2786.31934	-29.19167
2785.54199	-47.81385
2784.76465	-24.62703
2783.98731	17.83828
2783.20898	-36.16146
2782.43164	-25.86051
2781.65332	-18.78465
2780.87598	-69.54627
2780.09766	-52.83757
2779.31934	-74.68087
2778.54004	31.92257
2777.76172	-18.83322
2776.9834	-18.21536
2776.2041	4.86007
2775.42481	8.66936
2774.64551	-22.8179
2773.86621	-2.97658
2773.08691	-137.08441
2772.30664	55.90492
2771.52734	-20.46902
2770.74707	-87.20699
2769.9668	9.51199
2769.18652	-21.97212
2768.40625	-47.04261
2767.62598	-72.10869
2766.84473	5.29952
2766.06445	-3.76846
2765.2832	-54.45545
2764.50195	6.88917
2763.7207	-21.39169
2762.93945	-4.87643
2762.1582	34.01894
2761.37598	5.73068
2760.59473	-3.36374
2759.8125	-31.64463
2759.03027	119.07662
2758.24805	-56.23244
2757.46582	-11.01373
2756.68262	-93.60386
2755.90039	-26.04702
2755.11719	-47.93894
2754.33398	-12.35707
2753.55176	-88.51874
2752.76758	-36.99756
2751.98438	81.51469
2751.20117	-4.21183
2750.41699	-16.54781
2749.63379	-22.50271
2748.84961	3.42339
2748.06543	13.39402
2747.28125	-56.33203
2746.49609	-62.30213
2745.71191	-55.52666
2744.92676	-64.69069
2744.14258	66.29356
2743.35742	-3.40708
2742.57227	9.69653
2741.78711	13.23978
2741.00098	-11.87201
2740.21582	39.39666
2739.42969	-14.3558
2738.64356	52.7858
2737.85742	-35.94466
2737.07129	85.22308
2736.28516	37.83932
2735.49902	60.39892
2734.71191	3.48919
2733.92578	51.4561
2733.13867	7.26605
2732.35156	36.14262
2731.56445	134.86937
2730.77637	135.12123
2729.98926	81.40343
2729.20117	199.09145
2728.41406	-0.60499
2727.62598	148.77185
2726.83789	129.96063
2726.04981	60.40519
2725.26074	66.97144
2724.47266	54.51053
2723.68359	61.06461
2722.89551	121.49178
2722.10644	112.17672
2721.31738	49.00204
2720.52734	87.20217
2719.73828	49.37986
2718.94922	21.0651
2718.15918	65.56421
2717.36914	40.40775
2716.5791	65.8882
2715.78906	81.86188
2714.99902	113.64092
2714.20801	18.88683
2713.41797	85.43916
2712.62695	101.37166
2711.83594	98.32629
2711.04492	-24.82123
2710.25391	89.06239
2709.46289	127.07517
2708.6709	60.82732
2707.87988	29.3412
2707.08789	162.04962
2706.2959	92.65829
2705.50391	42.22518
2704.71191	127.50371
2703.91894	67.60258
2703.12695	45.57669
2702.33398	-4.83639
2701.54102	51.98044
2700.74805	45.71346
2699.95508	48.89988
2699.16211	-42.47102
2698.36914	-10.92112
2697.57519	-55.00435
2696.78125	-54.97794
2695.98828	61.57165
2695.19434	42.67228
2694.39941	55.2524
2693.60547	20.61167
2692.81152	45.7711
2692.0166	96.08307
2691.22168	33.12071
2690.42676	61.38792
2689.63184	99.07292
2688.83691	61.28009
2688.04199	4.63452
2687.24609	76.85994
2686.45019	-86.62189
2685.6543	45.27486
2684.8584	-17.63502
2684.0625	-2.01313
2683.2666	60.69678
2682.4707	76.28657
2681.67383	51.05622
2680.87695	76.04106
2680.08008	0.60584
2679.2832	63.22368
2678.48633	-81.19573
2677.68945	-43.68514
2676.8916	53.37302
2676.09473	-37.69156
2675.29688	122.0004
2674.49902	-37.99719
2673.70117	33.89969
2672.90234	68.1712
2672.10449	-38.50425
2671.30664	-16.76537
2670.50781	98.87534
2669.70898	61.09332
2668.91016	20.18984
2668.11133	-14.44669
2667.31152	79.18111
2666.51269	16.38451
2665.71289	72.43362
2664.91309	56.54435
2664.11426	15.65059
2663.31348	59.14465
2662.51367	-0.49943
2661.71387	86.71237
2660.91309	-7.29111
2660.11328	48.64613
2659.3125	38.97999
2658.51172	-108.05331
2657.71094	122.64411
2656.90918	50.53182
2656.1084	56.44849
2655.30664	168.41919
2654.50488	115.03403
2653.70313	55.42558
2652.90137	108.07576
2652.09961	160.70003
2651.29785	82.39749
2650.49512	131.87436
2649.69336	19.32281
2648.89063	155.99876
2648.08789	80.84054
2647.28516	142.71054
2646.48144	136.05679
2645.67871	110.72714
2644.875	178.75797
2644.07129	125.41002
2643.26758	65.8537
2642.46387	164.93872
2641.66016	61.8483
2640.85644	86.2647
2640.05176	151.073
2639.24805	153.6949
2638.44336	162.52031
2637.63867	115.41293
2636.83398	152.18536
2636.02832	179.61659
2635.22363	210.13997
2634.41797	184.76048
2633.61231	227.67032
2632.80762	192.97783
2632.00098	161.38661
2631.19531	216.66574
2630.38965	216.08878
2629.58301	175.18796
2628.77734	224.21301
2627.9707	208.11169
2627.16406	198.20847
2626.35742	327.74426
2625.54981	169.0947
2624.74316	149.89162
2623.93555	74.93941
2623.12891	136.25426
2622.32129	219.20605
2621.51367	218.54863
2620.70508	230.25934
2619.89746	204.83412
2619.08887	167.03346
2618.28125	194.19579
2617.47266	196.59825
2616.66406	239.18623
2615.85547	145.73891
2615.0459	203.7558
2614.23731	230.84795
2613.42773	162.14574
2612.61816	130.52892
2611.80957	265.69
2610.99902	301.97791
2610.18945	227.11197
2609.37988	368.3277
2608.56934	419.98547
2607.75977	379.05869
2606.94922	430.68127
2606.13867	479.19342
2605.32813	617.10754
2604.5166	462.06317
2603.70606	464.28363
2602.89453	460.32782
2602.08301	564.21509
2601.27148	332.24893
2600.45996	331.37952
2599.64844	348.98135
2598.83691	301.90894
2598.02441	239.45067
2597.21191	383.22925
2596.39941	357.69293
2595.58691	366.00378
2594.77441	235.87567
2593.96191	164.22607
2593.14844	403.17105
2592.33594	211.59857
2591.52246	296.73636
2590.70898	240.46298
2589.89551	313.25842
2589.08106	379.87073
2588.26758	332.80692
2587.45313	347.1691
2586.63965	241.77629
2585.82519	372.79041
2585.01074	331.86865
2584.19531	389.14917
2583.38086	526.17694
2582.56543	494.42596
2581.75098	585.3634
2580.93555	608.79407
2580.12012	561.69458
2579.30469	732.23901
2578.48828	636.07983
2577.67285	723.80066
2576.85644	691.99908
2576.04004	801.09815
2575.22363	536.53784
2574.40723	673.16687
2573.59082	619.94037
2572.77441	560.60535
2571.95703	758.32831
2571.13965	579.64917
2570.32227	584.56628
2569.50488	534.42328
2568.6875	707.51099
2567.87012	568.68951
2567.05176	598.02387
2566.23438	618.17621
2565.41602	598.5874
2564.59766	759.23895
2563.7793	547.19177
2562.95996	610.05231
2562.1416	688.15247
2561.32227	650.21106
2560.50391	554.29169
2559.68457	626.22827
2558.86523	627.95917
2558.04492	535.11652
2557.22559	576.4956
2556.40527	477.58402
2555.58594	570.76996
2554.76563	471.88153
2553.94531	534.53888
2553.12402	563.64447
2552.30371	461.74356
2551.4834	417.74313
2550.66211	532.09644
2549.84082	558.10535
2549.01953	416.67459
2548.19824	454.85394
2547.37695	529.526
2546.55469	375.98291
2545.7334	441.50116
2544.91113	506.98221
2544.08887	429.52234
2543.2666	336.88348
2542.44434	487.42917
2541.62109	382.63828
2540.79883	250.53909
2539.97559	425.29007
2539.15234	372.17868
2538.3291	294.78668
2537.50586	347.96567
2536.68164	364.68662
2535.8584	332.83951
2535.03418	361.67841
2534.20996	293.41834
2533.38574	310.10538
2532.56152	323.74567
2531.73731	252.4754
2530.91211	232.75433
2530.08789	288.81043
2529.26269	256.95282
2528.4375	261.45636
2527.61231	287.15476
2526.78711	237.11984
2525.96094	250.67992
2525.13574	188.54497
2524.30957	335.27722
2523.4834	309.44479
2522.65723	223.09869
2521.83106	312.23868
2521.00391	171.46016
2520.17773	266.60843
2519.35059	195.41554
2518.52344	169.58542
2517.69629	237.44984
2516.86914	241.823
2516.04199	249.20783
2515.21387	190.1225
2514.38574	206.55321
2513.55859	331.67682
2512.73047	175.9787
2511.90137	255.75909
2511.07324	365.6843
2510.24512	276.42236
2509.41602	202.26417
2508.58691	263.84998
2507.75781	253.03181
2506.92871	371.85266
2506.09961	336.88651
2505.27051	356.1741
2504.44043	327.22888
2503.61035	334.43875
2502.78027	395.85544
2501.95019	279.55954
2501.12012	392.1333
2500.29004	330.05283
2499.45898	249.923
2498.62793	350.37158
2497.79785	297.33481
2496.9668	202.19061
2496.13477	266.47043
2495.30371	21.00098
2494.47266	292.72293
2493.64063	197.61272
2492.80859	174.65701
2491.97656	247.85336
2491.14453	215.86751
2490.3125	192.89622
2489.47949	208.95918
2488.64746	210.00069
2487.81445	238.04491
2486.98144	224.05165
2486.14844	180.0473
2485.31445	250.05318
2484.48144	95.05712
2483.64746	281.99924
2482.81445	279.96213
2481.98047	238.93863
2481.14648	191.92716
2480.31152	132.93263
2479.47754	295.67813
2478.64258	188.73817
2477.80859	228.59535
2476.97363	220.5107
2476.13867	191.46294
2475.30273	333.03604
2474.46777	163.29691
2473.63281	230.0031
2472.79688	233.84404
2471.96094	150.93153
2471.125	367.09934
2470.28906	74.87502
2469.45215	102.6174
2468.61621	190.12347
2467.7793	220.80447
2466.94238	84.15118
2466.10547	195.47682
2465.26856	184.30041
2464.43164	370.19864
2463.59375	290.30395
2462.75684	156.70737
2461.91894	312.62982
2461.08106	334.21378
2460.24316	299.09912
2459.40527	353.46896
2458.56641	264.66296
2457.72852	360.74246
2456.88965	280.89365
2456.05078	210.00732
2455.21191	320.90939
2454.37207	303.64578
2453.5332	348.93832
2452.69336	263.16064
2451.85449	314.38101
2451.01465	264.34851
2450.17481	422.67807
2449.33398	378.57208
2448.49414	227.36771
2447.65332	296.33838
2446.81348	228.46626
2445.97266	300.36609
2445.13184	268.17212
2444.29102	322.18393
2443.44922	420.73981
2442.6084	290.45804
2441.7666	222.59827
2440.92481	240.89247
2440.08301	259.17047
2439.24121	399.16715
2438.39844	260.0498
2437.55664	218.92616
2436.71387	287.59866
2435.87109	397.77225
2435.02832	220.16177
2434.18555	312.49329
2433.34277	268.38156
2432.49902	345.8215
2431.65625	283.91724
2430.8125	201.27676
2429.96875	213.47253
2429.125	240.46646
2428.28027	237.81668
2427.43652	282.54459
2426.5918	294.6727
2425.74707	262.38455
2424.90234	360.3208
2424.05762	236.28439
2423.21289	251.33296
2422.36719	230.86587
2421.52246	195.61633
2420.67676	213.58644
2419.83106	281.79602
2418.98535	202.18796
2418.13867	214.20232
2417.29297	205.52701
2416.44629	276.59641
2415.60059	211.77889
2414.75391	327.09375
2413.90625	217.97604
2413.05957	232.86836
2412.21289	218.23396
2411.36523	265.55197
2410.51758	327.59274
2409.66992	271.62143
2408.82227	354.26056
2407.97461	254.06096
2407.12598	383.81146
2406.27832	457.51169
2405.42969	430.98132
2404.58106	430.96643
2403.73242	442.72403
2402.88379	422.07278
2402.03418	286.58026
2401.18555	327.76846
2400.33594	457.22452
2399.48633	430.65543
2398.63672	339.35858
2397.78711	392.22678
2396.93652	318.59274
2396.08691	244.98317
2395.23633	324.26318
2394.38574	394.68524
2393.53516	338.70053
2392.68457	329.73996
2391.83301	326.64206
2390.98242	264.79858
2390.13086	296.93369
2389.2793	449.42471
2388.42773	372.87976
2387.57617	316.89868
2386.72363	390.03503
2385.87207	301.78009
2385.01953	348.47241
2384.16699	383.40607
2383.31445	327.42038
2382.46191	242.1304
2381.6084	238.92503
2380.75586	300.18726
2379.90234	381.91934
2379.04883	267.34412
2378.19531	296.31317
2377.3418	342.83041
2376.48731	295.62796
2375.63379	383.08722
2374.7793	356.36093
2373.92481	361.82098
2373.07031	437.47906
2372.21582	404.87787
2371.36035	316.71051
2370.50586	322.1333
2369.65039	330.46103
2368.79492	370.92429
2367.93945	458.11554
2367.08398	361.2067
2366.22754	442.49789
2365.37207	436.14172
2364.51563	257.49924
2363.65918	397.11917
2362.80273	300.25687
2361.94629	428.12231
2361.08887	269.99383
2360.23242	494.05933
2359.375	391.3721
2358.51758	312.04123
2357.66016	270.63068
2356.80273	424.5213
2355.94434	514.22168
2355.08594	359.1228
2354.22852	576.96741
2353.37012	477.23526
2352.51172	339.67383
2351.65234	371.01605
2350.79394	361.58914
2349.93457	462.74426
2349.07617	476.5614
2348.2168	539.81433
2347.35742	317.9758
2346.49707	375.39114
2345.63769	374.6279
2344.77734	350.5914
2343.91699	538.72949
2343.05762	293.80307
2342.19629	467.32562
2341.33594	504.24969
2340.47559	491.77609
2339.61426	525.75006
2338.75293	356.47699
2337.8916	410.76126
2337.03027	279.28085
2336.16894	348.04556
2335.30664	390.65793
2334.44531	404.24606
2333.58301	397.51267
2332.7207	506.74332
2331.8584	407.21146
2330.99609	429.43149
2330.13281	474.80673
2329.26953	421.6528
2328.40723	327.96371
2327.54394	399.36432
2326.68066	386.75922
2325.81641	333.61343
2324.95313	242.85776
2324.08887	406.77084
2323.22461	289.96869
2322.36035	268.65836
2321.49609	365.92188
2320.63184	382.17404
2319.7666	219.16005
2318.90234	258.53619
2318.03711	292.09955
2317.17188	204.28699
2316.30566	258.04098
2315.44043	433.07648
2314.57519	264.39987
2313.70898	329.62744
2312.84277	198.53207
2311.97656	301.24411
2311.11035	250.97597
2310.24316	218.01842
2309.37695	187.95444
2308.50977	290.53915
2307.64258	179.71252
2306.77539	140.98502
2305.9082	87.85077
2305.04102	299.83371
2304.17285	292.75729
2303.30469	230.94328
2302.43652	218.10094
2301.56836	311.79031
2300.70019	249.97527
2299.83203	202.56422
2298.96289	368.10617
2298.09375	228.59168
2297.22461	376.78317
2296.35547	363.84619
2295.48633	210.00192
2294.61719	202.82971
2293.74707	175.52104
2292.87695	225.80652
2292.00684	342.14832
2291.13672	162.5381
2290.2666	74.89703
2289.39551	377.81937
2288.52539	379.15344
2287.6543	251.29262
2286.7832	353.07181
2285.91211	357.23856
2285.04004	292.53113
2284.16894	351.18469
2283.29688	246.33148
2282.42578	284.87833
2281.55273	283.25037
2280.68066	175.57079
2279.80859	191.143
2278.93555	109.27846
2278.06348	348.26758
2277.19043	375.21252
2276.31738	344.86771
2275.44434	317.38602
2274.57031	281.30926
2273.69727	308.20169
2272.82324	111.88944
2271.94922	207.43001
2271.07519	280.0419
2270.20117	246.81009
2269.32617	353.66431
2268.45215	240.37125
2267.57715	278.57291
2266.70215	231.02751
2265.82715	160.63422
2264.95215	124.53194
2264.07617	308.31592
2263.20117	323.56961
2262.32519	273.14212
2261.44922	222.7227
2260.57324	217.96805
2259.69727	290.23413
2258.82031	159.93031
2257.94336	229.2971
2257.06738	184.58044
2256.19043	211.13126
2255.3125	229.10234
2254.43555	218.56566
2253.55859	188.07753
2252.68066	163.27916
2251.80273	374.86722
2250.92481	159.23669
2250.04688	305.24112
2249.16797	254.76828
2248.29004	386.44592
2247.41113	216.45044
2246.53223	271.24518
2245.65332	380.04739
2244.77441	323.86343
2243.89453	267.68213
2243.01563	208.67572
2242.13574	331.56256
2241.25586	264.01154
2240.37598	281.70236
2239.49609	296.53494
2238.61523	237.50627
2237.73535	243.80054
2236.85449	332.39615
2235.97363	287.55096
2235.09277	310.81528
2234.21094	302.84283
2233.33008	300.54242
2232.44824	295.38757
2231.56641	264.70398
2230.68457	285.04935
2229.80273	299.70581
2228.9209	447.53525
2228.03809	249.62782
2227.15527	230.24733
2226.27344	165.55508
2225.39063	239.61911
2224.50684	228.7016
2223.62402	274.39569
2222.74023	232.32256
2221.85644	374.16843
2220.97363	303.78757
2220.08887	219.26424
2219.20508	295.95508
2218.32129	253.85983
2217.43652	237.20094
2216.55176	226.18957
2215.66699	119.09866
2214.78223	130.69092
2213.89746	184.63577
2213.01172	275.25128
2212.12695	250.06685
2211.24121	337.78842
2210.35547	318.2146
2209.46875	160.35877
2208.58301	248.01161
2207.69629	191.75301
2206.81055	163.71454
2205.92383	155.40425
2205.03711	-10.78442
2204.14941	223.30632
2203.26269	130.41313
2202.375	344.64017
2201.48828	341.87741
2200.60059	133.50001
2199.71191	206.76672
2198.82422	130.79074
2197.93652	-23.98063
2197.04785	243.41797
2196.15918	136.48505
2195.27051	234.93837
2194.38184	181.46349
2193.49316	212.35777
2192.60352	156.06357
2191.71387	217.8392
2190.82422	113.76523
2189.93457	212.02916
2189.04492	88.30776
2188.15527	110.67819
2187.26465	90.89569
2186.37402	180.60881
2185.4834	160.79704
2184.59277	129.75432
2183.70215	213.75996
2182.81055	149.02036
2181.91992	31.00795
2181.02832	232.72539
2180.13672	305.37399
2179.24512	335.93225
2178.35254	201.09338
2177.46094	66.30305
2176.56836	242.5345
2175.67578	9.71516
2174.7832	264.28256
2173.89063	205.12976
2172.99707	210.36929
2172.10449	246.3918
2171.21094	134.06201
2170.31738	377.09845
2169.42383	197.62561
2168.5293	102.1066
2167.63574	269.47217
2166.74121	252.23296
2165.84668	156.72226
2164.95215	209.35367
2164.05762	247.98265
2163.16309	138.52426
2162.26758	219.01425
2161.37207	190.55356
2160.47754	340.78568
2159.58106	306.69669
2158.68555	160.98218
2157.79004	18.10263
2156.89356	221.19243
2155.99707	298.6748
2155.10059	356.59375
2154.2041	233.2471
2153.30762	135.02451
2152.41016	142.72871
2151.51367	409.57602
2150.61621	464.56201
2149.71875	349.6008
2148.82031	262.51263
2147.92285	295.18384
2147.02441	372.36282
2146.12695	329.82611
2145.22852	445.90265
2144.33008	280.91678
2143.43066	349.63592
2142.53223	184.70872
2141.63281	142.17114
2140.7334	185.82013
2139.83398	215.54242
2138.93457	184.10266
2138.03516	341.59854
2137.13477	315.66953
2136.23438	317.51205
2135.33398	155.50847
2134.43359	237.86922
2133.5332	339.61676
2132.63281	291.45035
2131.73144	329.297
2130.83008	214.53874
2129.92871	183.02083
2129.02734	290.15631
2128.12598	275.24701
2127.22363	21.93128
2126.32129	128.99017
2125.41992	50.35316
2124.51758	146.25847
2123.61426	98.07475
2122.71191	288.06528
2121.80859	286.91693
2120.90527	247.00163
2120.00293	229.24011
2119.09863	78.63236
2118.19531	218.57342
2117.29199	222.91064
2116.38769	191.27306
2115.4834	126.45543
2114.5791	130.76248
2113.67481	162.69469
2112.76953	236.04367
2111.86523	267.91812
2110.95996	117.44762
2110.05469	99.58765
2109.14941	228.0677
2108.24414	-38.29286
2107.33789	159.13393
2106.43164	143.98131
2105.52637	167.45877
2104.62012	177.11322
2103.71289	120.5501
2102.80664	166.03262
2101.89941	228.01683
2100.99316	19.84847
2100.08594	227.8732
2099.17871	171.29465
2098.27051	40.3369
2097.36328	250.95418
2096.45508	18.12048
2095.54688	209.35394
2094.63867	111.47392
2093.73047	222.77971
2092.82227	80.88562
2091.91309	197.62207
2091.00391	149.27142
2090.0957	-138.30925
2089.18555	33.34399
2088.27637	114.2145
2087.36719	203.28653
2086.45703	135.67708
2085.54688	-6.09513
2084.63672	19.72726
2083.72656	226.77707
2082.81641	109.74472
2081.90527	-34.71521
2080.99414	-11.70991
2080.08301	132.01306
2079.17188	-34.35148
2078.26074	46.20677
2077.34961	30.73515
2076.4375	-58.78416
2075.52539	-79.74592
2074.61328	33.59061
2073.70117	83.84311
2072.78809	123.09526
2071.87598	-62.28902
2070.96289	113.88789
2070.04981	-170.03043
2069.13672	181.28366
2068.22363	-105.29822
2067.30957	185.62785
2066.39648	107.07189
2065.48242	91.44138
2064.56836	144.17957
2063.6543	43.75618
2062.73926	134.72404
2061.82519	-44.95018
2060.91016	18.64675
2059.99512	71.27794
2059.08008	36.45903
2058.16504	-42.05751
2057.24902	226.23421
2056.33301	218.66177
2055.41797	115.55238
2054.50098	-23.0261
2053.58496	149.50398
2052.66894	-57.24213
2051.75195	180.65352
2050.83594	273.92438
2049.91894	124.4845
2049.00098	220.41244
2048.08398	218.18735
2047.16699	251.37361
2046.24902	311.76855
2045.33106	173.29266
2044.41309	211.86929
2043.49512	408.33585
2042.57617	253.5433
2041.6582	136.91232
2040.73926	126.42801
2039.82031	249.24432
2038.90137	75.51605
2037.98144	138.43153
2037.0625	19.14832
2036.14258	73.87068
2035.22266	98.66326
2034.30273	85.39032
2033.38281	126.44787
2032.46191	175.61649
2031.54199	110.70079
2030.62109	13.20574
2029.70019	59.6174
2028.7793	35.42994
2027.85742	127.91753
2026.93652	60.29258
2026.01465	63.19964
2025.09277	14.56475
2024.1709	71.68723
2023.24902	185.70628
2022.32617	88.24171
2021.4043	7.07345
2020.48144	264.59201
2019.55859	53.36118
2018.63574	150.95372
2017.71191	321.59689
2016.78906	164.58968
2015.86523	99.65163
2014.94141	69.90861
2014.01758	400.02371
2013.09277	243.05714
2012.16894	229.49644
2011.24414	129.38779
2010.31934	323.99667
2009.39453	250.91591
2008.46973	194.06691
2007.54394	461.45755
2006.61914	353.23908
2005.69336	96.48978
2004.76758	401.51282
2003.8418	185.3302
2002.91504	382.20905
2001.98926	368.50232
2001.0625	427.63297
2000.7555	103.03133
1999.82324	-67.82994
1998.89551	-45.43296
1997.96875	-130.77571
1997.04199	-118.90889
1996.11426	30.53287
1995.18652	77.62367
1994.25879	-55.71711
1993.33008	-46.12697
1992.40234	-36.4293
1991.47363	5.67674
1990.54492	-102.90063
1989.61621	55.14592
1988.6875	40.98757
1987.75879	91.50501
1986.8291	-48.91429
1985.89941	-25.12216
1984.96973	170.84912
1984.04004	22.68854
1983.11035	-1.68246
1982.17969	124.53151
1981.24902	70.74397
1980.31934	105.70948
1979.38769	60.14661
1978.45703	-98.11144
1977.52637	-116.62535
1976.59473	71.62556
1975.66309	66.63028
1974.73144	64.3824
1973.79981	59.51278
1972.86719	-9.67477
1971.93555	-70.72913
1971.00293	21.11858
1970.07031	59.36988
1969.13769	33.33353
1968.2041	157.41145
1967.27148	112.70968
1966.33789	151.10278
1965.4043	-56.85267
1964.4707	104.81097
1963.53711	17.49397
1962.60254	88.15783
1961.66894	41.09518
1960.73438	90.39818
1959.79981	24.6985
1958.86426	84.74941
1957.92969	3.10022
1956.99414	57.84884
1956.05957	5.69829
1955.12402	63.15585
1954.1875	262.21549
1953.25195	39.17966
1952.31543	24.56428
1951.37988	98.0956
1950.44336	-25.93252
1949.50684	-21.77517
1948.56934	54.44948
1947.63281	79.97346
1946.69531	9.47275
1945.75781	51.03016
1944.82031	52.59044
1943.88281	-1.81859
1942.94434	-21.54485
1942.00684	76.00692
1941.06836	-15.63882
1940.12988	207.09392
1939.19141	72.86829
1938.25195	-61.29818
1937.31348	20.24194
1936.37402	123.0495
1935.43457	-16.34587
1934.49512	78.45982
1933.55469	-60.86198
1932.61523	-104.37524
1931.67481	-38.84609
1930.73438	-53.09738
1929.79394	23.03375
1928.85352	-113.46511
1927.91211	-29.38039
1926.97168	44.04873
1926.03027	29.79989
1925.08887	-50.82957
1924.14648	-83.64261
1923.20508	-79.28072
1922.26269	44.49799
1921.32031	85.97186
1920.37793	55.80002
1919.43555	-32.71387
1918.49316	-171.58107
1917.54981	-58.53366
1916.60742	-43.60997
1915.66406	-52.55243
1914.71973	-37.65352
1913.77637	-176.41489
1912.83203	23.89126
1911.88867	-56.58434
1910.94434	74.76649
1910.455	-32.17763
1909.05469	-83.51442
1908.11035	21.27658
1907.16504	-159.69745
1906.21973	87.87188
1905.27441	25.93443
1904.3291	-94.15517
1903.38379	-34.45829
1902.4375	-40.87102
1901.49121	-12.94274
1900.54492	-40.51606
1899.59863	124.72367
1898.65137	9.96044
1897.70508	3.48311
1896.75781	33.94757
1895.81055	6.32453
1894.86328	68.41306
1893.91504	-99.05941
1892.96777	2.56139
1892.01953	112.0362
1891.07129	10.52484
1890.12305	56.65892
1889.17481	2.60865
1888.22559	51.32698
1887.27637	68.39617
1886.32813	48.56991
1885.37793	60.33098
1884.42871	85.23823
1883.47949	15.35254
1882.5293	-30.83851
1881.5791	-45.45128
1880.62891	-60.07577
1879.67871	80.47831
1878.72754	-120.91969
1877.77734	-27.77163
1876.82617	-21.43093
1875.875	100.53305
1874.92383	88.41609
1873.97168	-34.06044
1873.02051	124.55243
1872.06836	-139.73213
1871.11621	165.83496
1870.16406	40.74191
1869.21094	-29.2075
1868.25879	24.18741
1867.30566	14.5739
1866.35254	-26.53223
1865.39941	118.55842
1864.44531	-37.96128
1863.49219	7.41909
1862.53809	42.27439
1861.58398	27.30852
1860.62988	-76.74911
1859.67578	-60.2921
1858.7207	-22.91428
1857.76563	-45.79299
1856.81152	-29.41167
1855.85547	104.71587
1854.90039	-4.58954
1853.94531	103.28042
1852.98926	64.60048
1852.0332	75.60506
1851.07715	52.59389
1850.12109	34.79937
1849.16406	129.37701
1848.20801	72.33594
1847.25098	64.93401
1846.29394	117.59325
1845.33691	-20.43735
1844.37891	19.11727
1843.4209	103.01514
1842.46387	111.1711
1841.50586	-13.78804
1840.54688	132.61659
1839.58887	-26.24905
1838.62988	23.562
1837.67188	-17.92509
1836.71289	-12.49535
1835.75293	63.28085
1834.79394	19.13727
1833.83496	11.46556
1832.875	-82.18893
1831.91504	-144.57526
1830.95508	-3.85846
1829.99414	-29.83553
1829.03418	-27.18894
1828.07324	40.48832
1827.11231	126.32962
1826.15137	157.48877
1825.19043	-14.24325
1824.22852	162.49713
1823.2666	-4.01553
1822.30469	-105.5039
1821.34277	104.86698
1820.38086	112.47649
1819.41797	169.4117
1818.45606	47.10632
1817.49316	306.52356
1816.53027	-15.70638
1815.56641	25.54451
1814.60352	-31.84999
1813.63965	35.28952
1812.67578	47.90627
1811.71191	70.87038
1810.74805	109.36055
1809.7832	23.37139
1808.81934	82.54792
1807.85449	22.4687
1806.88965	169.6645
1805.92481	132.8614
1804.95898	282.51776
1803.99316	-10.68911
1803.02832	40.52027
1802.0625	73.56451
1801.0957	111.74435
1800.12988	126.60558
1799.16309	94.87236
1798.19629	16.57616
1797.22949	2.93327
1796.26269	128.87631
1795.2959	122.92628
1794.32813	18.75127
1793.36035	54.11528
1792.39258	141.10666
1791.42481	42.08871
1790.45703	72.1957
1789.48828	-11.32869
1788.51953	-89.67934
1787.55078	219.069
1786.58203	76.15611
1785.61231	126.74112
1784.64356	35.44029
1783.67383	88.54649
1782.7041	126.14132
1781.73438	130.19107
1780.76367	178.02031
1779.79394	-152.93027
1778.82324	-17.5257
1777.85254	40.53882
1776.88184	34.18373
1775.91016	43.25008
1774.93945	-68.67866
1773.96777	97.33697
1772.99609	78.01546
1772.02441	192.44275
1771.05176	175.63121
1770.08008	79.0976
1769.10742	231.94524
1768.13477	71.13052
1767.16211	-33.10728
1766.18945	32.24697
1765.21582	110.39105
1764.24219	188.48116
1763.26856	235.70432
1762.29492	223.83884
1761.32129	214.52293
1760.34668	271.90301
1759.37207	180.42783
1758.39746	312.13696
1757.42285	256.54947
1756.44824	370.19565
1755.47266	286.36777
1754.49707	289.69736
1753.52148	375.00571
1752.5459	457.69565
1751.57031	573.63007
1750.59375	561.43555
1749.61719	472.40582
1748.64063	478.11127
1747.66406	558.0177
1746.6875	630.19299
1745.70996	489.95319
1744.7334	646.4812
1743.75586	631.5658
1742.77734	537.36127
1741.79981	453.40356
1740.82129	681.27741
1739.84375	661.16473
1738.86523	538.83429
1737.88574	475.27518
1736.90723	419.38696
1735.92773	501.37564
1734.94922	478.64661
1733.96973	284.88821
1732.99023	525.00195
1732.00977	287.88754
1731.03027	270.22406
1730.04981	242.33739
1729.06934	168.54216
1728.08887	161.03616
1727.10742	168.79719
1726.12695	77.15541
1725.14551	263.22943
1724.16406	41.64357
1723.18262	79.89301
1722.20019	151.1991
1721.21875	-83.02677
1720.23633	-85.57289
1719.25391	51.81897
1718.27148	72.10002
1717.28809	-78.08318
1716.30566	38.81184
1715.32227	-4.55665
1714.33887	-86.06262
1713.35449	137.43306
1712.37109	68.59268
1711.38672	37.86098
1710.40332	118.89101
1709.41894	-107.43308
1708.43359	-44.23727
1707.44922	-3.92943
1706.46387	-103.26077
1705.47852	119.69763
1704.49316	38.09722
1703.50781	65.57916
1702.52246	-92.10207
1701.53613	-8.87295
1700.54981	-151.31616
1699.56348	33.22901
1698.57715	-28.12017
1697.58984	-3.3337
1696.60352	34.09311
1695.61621	-120.99129
1694.62891	-121.58496
1693.6416	-66.50718
1692.65332	-46.91258
1691.66504	-62.77284
1690.67676	12.42971
1689.68848	49.64
1688.70019	-47.21806
1687.71191	-151.6429
1686.72266	-18.43087
1685.7334	66.68671
1684.74414	-15.02491
1683.75488	-106.82881
1682.76465	-52.12298
1681.77441	17.69242
1680.78418	44.53788
1679.79394	43.58444
1678.80371	-139.10384
1677.8125	-16.42351
1676.82227	159.17377
1675.83106	6.77412
1674.83984	76.3349
1673.84766	-20.56444
1672.85644	69.10166
1671.86426	65.45483
1670.87207	-16.3224
1669.87988	42.99325
1668.88672	46.84688
1667.89453	15.43168
1666.90137	157.72755
1665.9082	186.67248
1664.91504	62.06691
1663.9209	186.59219
1662.92773	11.6868
1661.93359	206.56194
1660.93945	172.50334
1659.94531	206.32365
1658.95019	199.8868
1657.95606	-0.07174
1656.96094	234.71773
1655.96582	258.37402
1654.9707	191.5838
1653.97461	345.77783
1652.97949	263.90027
1651.9834	174.5009
1650.98731	333.57559
1649.99023	382.16101
1648.99414	330.37329
1647.99707	398.97263
1647.344	352.17899
1646.00293	613.76257
1645.00586	564.40674
1644.00781	575.19495
1643.01074	698.7229
1642.01269	679.38886
1641.01465	770.24945
1640.01563	688.27032
1639.01758	926.77399
1638.01856	879.81085
1637.01953	1038.06311
1636.02051	1008.58362
1635.02051	1139.19409
1634.02148	1317.26538
1633.02148	1230.18774
1632.02148	1263.13306
1631.02148	1391.03516
1630.02148	1831.25061
1629.02051	1864.0094
1628.01953	2039.12988
1627.01856	2364.01856
1626.01758	2603.86572
1625.01563	2721.26807
1624.01465	3307.8667
1623.01269	3352.68848
1622.01074	3489.79517
1621.00879	3699.17505
1620.00586	3868.54956
1619.00293	4037.84424
1618.00098	4177.15283
1616.99707	4042.20898
1615.99414	4253.7002
1614.99121	3984.24585
1613.98731	4013.79688
1612.9834	3859.03516
1611.97949	3866.1731
1610.97559	3798.61572
1609.9707	3877.91748
1608.96582	3713.31274
1607.96094	4088.64746
1606.95606	4182.74414
1605.95117	4396.1665
1604.94531	4626.89355
1603.93945	4847.57666
1602.93359	4871.81641
1601.92773	4719.61084
1600.92188	4264.36377
1599.91504	4296.13281
1598.9082	3868.45386
1597.90137	3709.0957
1596.89453	3202.26196
1595.88672	2966.14697
1594.87988	2678.02197
1593.87207	2394.96387
1592.86426	2372.45654
1591.85547	2171.39478
1590.84766	1801.8219
1589.83887	1670.36108
1588.83008	1615.7793
1587.82129	1551.3053
1586.8125	1489.33398
1585.80273	1256.47278
1584.79297	1204.4801
1583.7832	1154.98206
1582.77344	1117.88123
1581.76367	937.25116
1580.75293	1041.23865
1579.74219	915.11456
1578.73144	791.51483
1577.7207	766.88013
1576.70996	878.23523
1575.69824	680.55695
1574.68652	796.82221
1573.67481	636.3056
1572.66309	638.90008
1571.65039	606.90869
1570.63867	453.94388
1569.62598	555.32642
1568.61231	733.18158
1567.59961	560.54175
1566.58691	378.10748
1565.57324	274.68097
1564.55957	548.651
1563.5459	349.07361
1562.53125	516.90912
1561.51758	428.34708
1560.50293	608.43097
1559.48828	295.67957
1558.47363	347.63513
1557.45801	273.96411
1556.44238	224.95281
1555.42773	355.69019
1554.41113	218.08048
1553.39551	321.7034
1552.37988	385.9267
1551.36328	255.79776
1550.34668	110.97387
1549.33008	241.60768
1548.31348	369.73856
1547.2959	276.61319
1546.27832	205.65247
1545.26074	237.91725
1544.24316	157.18813
1543.22559	88.7808
1542.20703	226.65395
1541.18848	175.45888
1540.16992	332.91464
1539.15137	306.28131
1538.13184	255.12892
1537.11328	181.94229
1536.09375	138.21869
1535.07422	-10.90387
1534.05371	183.22922
1533.03418	208.19495
1532.01367	83.68646
1530.99316	101.33346
1529.97266	131.23584
1528.95117	129.29778
1527.93066	75.96668
1526.90918	44.69712
1525.88769	40.37652
1524.86621	58.09598
1523.84375	68.47753
1522.82227	59.31215
1521.79981	189.54581
1520.77734	-46.98595
1519.75391	-4.7528
1518.73144	88.80854
1517.70801	-3.3529
1516.68457	131.72826
1515.66113	-102.02488
1514.63769	13.5247
1513.61328	68.0041
1512.58887	-92.31573
1511.56445	191.59868
1510.54004	16.71928
1509.51563	-14.1441
1508.49023	3.79594
1507.46484	16.87369
1506.43945	3.14995
1505.41406	143.00977
1504.38769	-33.97035
1503.36133	-37.87024
1502.33496	-5.20821
1501.30859	0.67419
1500.28223	-66.47081
1499.25488	-55.67009
1498.22852	247.22659
1497.20117	87.66719
1496.17285	110.6589
1495.14551	-102.27323
1494.11719	-11.1088
1493.08887	138.39728
1492.06055	193.06161
1491.03223	106.76241
1490.00293	-8.64125
1488.97461	201.58142
1487.94531	122.69236
1486.91602	208.99698
1485.88574	190.8838
1484.85644	238.3529
1483.82617	450.85785
1482.7959	481.31818
1481.76563	477.82889
1480.73438	474.3635
1479.70313	555.80249
1478.67285	632.39337
1477.64063	835.01752
1476.60938	821.90131
1475.57813	973.58392
1474.5459	800.6123
1473.51367	954.71234
1472.48144	1084.56397
1471.44824	1037.65173
1470.41602	1218.32459
1469.38281	1074.6637
1468.34961	1180.30408
1467.31543	985.96472
1466.28223	801.41614
1465.24805	1069.14514
1464.21387	1228.00635
1463.17969	1220.05652
1462.14551	1071.97925
1461.11035	1027.88074
1460.07617	1097.37183
1459.04102	1401.12415
1458.00488	1050.42322
1456.96973	1047.53589
1455.93359	1228.11072
1454.89746	1116.65808
1453.86133	1227.2467
1452.82519	1149.67627
1451.78809	1281.97803
1450.75195	1284.06397
1449.71484	1175.28784
1448.67773	984.64551
1447.63965	1227.84876
1446.60254	1071.0708
1445.56445	1128.75794
1444.52637	1133.47681
1443.48731	1015.4325
1442.44922	1008.20642
1441.41016	1227.2439
1440.37109	1092.51367
1439.33203	1323.54346
1438.29297	1292.34497
1437.25293	1015.90863
1436.21289	1018.51288
1435.17285	845.67822
1434.13281	812.33935
1433.09277	1050.56177
1432.05176	673.7395
1431.01074	854.31769
1429.96973	717.89099
1428.92871	809.63055
1427.88672	798.15301
1426.8457	774.72217
1425.80371	636.16724
1424.76074	723.19055
1423.71875	747.86224
1422.67578	746.1817
1421.63281	814.0614
1420.58984	654.25049
1419.54688	887.5448
1418.50391	821.29791
1417.45996	841.3457
1416.41602	746.46771
1415.37207	1001.24786
1414.32715	1093.17163
1413.2832	917.03876
1412.23828	906.12183
1411.19336	823.4765
1410.14844	889.20136
1409.10254	921.45294
1408.05664	803.1012
1407.01172	799.58038
1405.96484	889.30048
1404.91894	663.61523
1403.87207	660.23321
1402.82617	484.92224
1401.7793	648.81299
1400.73144	480.80881
1399.68457	489.55328
1398.63672	631.9751
1397.58887	559.63239
1396.54102	532.68323
1395.49316	653.65692
1394.44434	695.92419
1393.39551	747.74902
1392.34668	778.13818
1391.29785	918.17456
1390.24902	643.6189
1389.19922	719.38123
1388.14941	530.79059
1387.09961	466.13315
1386.04981	618.17926
1384.99902	422.69458
1383.94824	467.6741
1382.89746	441.2984
1381.84668	500.60251
1380.7959	448.14395
1379.74414	248.32523
1378.69238	507.42728
1377.64063	374.30054
1376.58887	324.43323
1375.53613	231.85877
1374.4834	284.2486
1373.43066	258.28714
1372.37793	393.82291
1371.32519	299.08231
1370.27148	318.33334
1369.21777	135.92302
1368.16406	361.6637
1367.11035	248.17529
1366.05566	229.62146
1365.00098	185.0307
1363.94629	185.53174
1362.8916	-67.50939
1361.83691	61.06045
1360.78125	-49.64768
1359.72559	228.14354
1358.66992	81.99738
1357.61426	229.5074
1356.55762	-70.36365
1355.50098	84.28345
1354.44434	-2.42749
1353.38769	-11.00837
1352.33008	-78.67899
1351.27344	-49.34122
1350.21582	17.84004
1349.1582	-66.23814
1348.09961	-93.5386
1347.04199	-120.79257
1345.9834	213.39191
1344.92481	134.194
1343.86621	22.00605
1342.80664	39.72765
1341.74805	14.99344
1340.68848	51.64979
1339.62891	118.99092
1338.56836	14.1519
1337.50879	24.93897
1336.44824	80.54639
1335.38769	166.80438
1334.32617	205.92134
1333.26563	164.94255
1332.2041	281.84177
1331.14258	57.21272
1330.08106	195.33739
1329.01953	199.23987
1327.95703	424.42462
1326.89453	308.31537
1325.83203	359.3327
1324.76953	579.72241
1323.70606	376.71753
1322.64356	350.17627
1321.58008	318.96933
1320.5166	461.73026
1319.45215	519.86017
1318.38867	432.33121
1317.32422	809.94696
1316.25977	656.68756
1315.19434	635
1314.12988	913.82214
1313.06445	664.48218
1311.99902	875.1817
1310.93359	1031.85986
1309.86719	1099.36511
1308.80176	1068.37537
1307.73535	1217.95044
1306.66894	1419.05444
1305.60156	1242.78125
1304.53516	1530.53503
1303.46777	1209.11291
1302.40039	1246.18909
1301.33301	1339.46924
1300.26465	1161.15759
1299.19629	1242.7533
1298.12891	1113.71924
1297.05957	1071.32434
1295.99121	1066.39465
1294.92188	1201.80786
1293.85352	1005.15332
1292.7832	965.22626
1291.71387	932.34497
1290.64453	946.23023
1289.57422	883.02783
1288.50391	983.37543
1287.43359	1006.6311
1286.36231	1186.32629
1285.29199	1034.48267
1284.2207	1144.10999
1283.14941	1151.03735
1282.07715	1209.29919
1281.00586	1213.90442
1279.93359	1220.85291
1278.86133	1097.24829
1277.78906	1281.39673
1276.71582	999.38153
1275.64258	1255.72595
1274.57031	1129.93347
1273.49609	1153.26135
1272.42285	1020.57751
1271.34863	1188.27881
1270.27441	941.60907
1269.20019	1072.0415
1268.12598	795.26917
1267.05176	869.86664
1265.97656	797.92426
1264.90137	779.49744
1263.82617	728.5398
1262.752	793.8194
1261.67383	612.76263
1260.59863	691.99017
1259.52148	596.98297
1258.44531	520.59705
1257.36816	720.54102
1256.29199	820.58978
1255.21484	714.04462
1254.13672	542.578
1253.05957	556.77344
1251.98144	691.57391
1250.90332	480.80216
1249.82519	462.54855
1248.74609	687.68573
1247.66797	368.1283
1246.58887	546.85236
1245.50977	468.37112
1244.42969	503.40485
1243.35059	512.95215
1242.27051	409.05551
1241.19043	434.81607
1240.11035	300.89063
1239.0293	347.47791
1237.94824	475.00134
1236.86816	560.84039
1235.78613	551.84015
1234.70508	596.00726
1233.62305	399.78537
1232.54102	614.94665
1231.45898	490.40665
1230.37695	677.72839
1229.29394	548.59497
1228.21191	421.81662
1227.12793	604.39459
1226.04492	588.41571
1224.96191	583.97015
1223.87793	591.05157
1222.79394	607.34515
1221.70996	609.78607
1220.625	801.25946
1219.54102	782.89209
1218.45606	999.57483
1217.37109	1326.74597
1216.28516	1414.20459
1215.20019	1697.36963
1214.11426	2003.42773
1213.02832	2433.65601
1211.94238	2490.8335
1210.85547	2732.06079
1209.76856	2761.51489
1208.68164	2678.23389
1207.59473	2489.18652
1206.50781	2272.61157
1205.41992	1812.44788
1204.33203	1722.47144
1203.24414	1379.76294
1202.15625	1214.06812
1201.06738	1062.20459
1199.97852	1057.34912
1198.88965	822.89276
1197.80078	717.05402
1196.71094	638.77631
1195.62207	753.24072
1194.53223	461.61313
1193.44141	541.62048
1192.35156	412.9158
1191.26074	428.66663
1190.16992	448.97168
1189.0791	295.09137
1187.98828	368.06342
1186.89648	115.72176
1185.80469	204.68286
1184.71289	353.11139
1183.62109	206.15736
1182.52832	356.76117
1181.43555	358.54517
1180.34277	428.93381
1179.2511	531.28613
1178.15723	519.23364
1177.06348	530.02032
1175.96973	700.77838
1174.87598	704.61108
1173.78125	719.83752
1172.68652	924.62805
1171.59277	960.2998
1170.49707	1265.36426
1169.40234	1161.63257
1168.30664	1213.1189
1167.21191	1449.3916
1166.11523	1459.66675
1165.01953	1321.64368
1163.92383	1279.42835
1162.82715	1392.24109
1161.73047	1108.33069
1160.63379	1056.97412
1159.53613	1062.56958
1158.43848	1120.52795
1157.34082	834.50324
1156.24316	1006.27655
1155.14551	1034.51257
1154.04688	1042.21558
1152.94824	865.54584
1151.84961	1089.36243
1150.75098	908.13892
1149.65137	956.65949
1148.55176	982.38648
1147.45215	994.42694
1146.35254	1217.80518
1145.25195	1227.44617
1144.15137	1416.52881
1143.05078	1507.82361
1141.95019	1987.38001
1140.84961	1862.74585
1139.74805	2153.54004
1138.64648	2169.55835
1137.54492	2426.05542
1136.44238	2498.64819
1135.34082	2346.6311
1134.23828	2591.47534
1133.13477	2641.19971
1132.03223	2534.46558
1130.92871	2738.20703
1129.82617	2635.95044
1128.72168	2769.28149
1127.61816	2655.65845
1126.51367	2510.34009
1125.41016	2362.78247
1124.30566	2330.67603
1123.20019	2117.51099
1122.0957	1992.63147
1120.99023	1836.09534
1119.88477	1880.85498
1118.7793	1814.76782
1117.67285	1477.40369
1116.56738	1540.17053
1115.46094	1785.89246
1114.35352	1584.16907
1113.24707	1549.63037
1112.13965	1397.63916
1111.03223	1216.32129
1109.92481	1125.328
1108.81738	1036.58789
1107.70898	1020.04169
1106.60059	775.62854
1105.49219	713.95685
1104.38379	526.00024
1103.27441	619.87311
1102.16504	481.51575
1101.05566	559.50238
1099.94629	736.54401
1098.83691	645.42981
1097.72656	799.77484
1096.61621	852.69641
1095.50488	867.2843
1094.39453	839.06824
1093.2832	894.07318
1092.17188	1115.48608
1091.06055	1116.34888
1089.94922	1418.49268
1088.83691	1394.47803
1087.72461	1498.55212
1086.61231	1618.27393
1085.49902	1490.7561
1084.38672	1423.90625
1083.27344	1372.76233
1082.16016	1256.48425
1081.0459	1256.94568
1079.93262	1129.43982
1078.81836	1102.92175
1077.7041	748.83063
1076.58887	829.98425
1075.47461	751.8512
1074.35938	725.27576
1073.24414	747.98645
1072.12891	479.30765
1071.01269	555.75531
1069.89648	432.76022
1068.78027	446.39874
1067.66406	486.8645
1066.54785	428.772
1065.43066	576.58234
1064.31348	601.2157
1063.19629	851.77106
1062.07813	757.70544
1060.95996	469.07892
1059.84277	927.33435
1058.72363	799.66962
1057.60547	855.29364
1056.48633	908.62036
1055.36719	897.10339
1054.24805	756.01166
1053.12891	668.53888
1052.00879	904.79236
1050.88867	839.57452
1049.76856	847.99518
1048.64844	831.83691
1047.52734	652.80652
1046.40625	730.29749
1045.28516	673.93719
1044.16406	648.77966
1043.04199	487.63815
1041.91992	638.50488
1040.79785	778.13812
1039.67578	703.85065
1038.55273	934.65106
1037.43066	891.47388
1036.30762	899.47906
1035.18359	887.41803
1034.06055	1002.16779
1032.93652	1125.73608
1031.8125	1200.29297
1030.68848	1341.50195
1029.56348	1313.65881
1028.43945	1732.57214
1027.31445	1977.94287
1026.18848	2252.06348
1025.06348	2526.04858
1023.9375	2406.80127
1022.81152	1972.28943
1021.68555	1677.79126
1020.55859	1370.07471
1019.43262	1060.25171
1018.30566	979.03857
1017.17871	962.16235
1016.05078	1062.79736
1014.92383	974.92395
1013.7959	1212.90564
1012.66699	3506.16577
1011.53906	5983.19067
1010.41016	9033.72852
1009.28223	14172.39893
1008.15234	26380.0498
1007.02344	39390.36328
1005.89356	52868.60644
1004.76367	85984.66406
1003.63379	97878.14844
1002.50391	108056.5801
1001.37305	96545.36719
1000.24316	74022.15723
999.11133	50445.57813
997.98047	36956.70264
996.84863	14976.22119
995.71777	9493.62354
994.58594	5658.77319
993.45313	2153.28101
992.32129	1866.56348
991.18848	1690.31787
990.05566	1518.55383
989.30469	1874.09033
988.92188	1454.96143
987.78906	1265.66382
986.65527	937.50012
985.52148	774.83935
984.3877	621.06226
983.25293	465.13983
982.11816	322.50381
980.9834	246.01918
979.84863	372.20227
978.71387	-12.55166
977.57813	159.86526
976.44238	87.88277
975.30566	-6.07776
974.16992	192.64122
973.0332	94.3075
971.89648	200.55588
970.75977	278.18008
969.62207	237.06346
968.48535	222.35179
967.34766	306.53265
966.20898	526.89398
965.07129	244.18208
963.93262	424.95691
962.79395	324.63544
961.65527	134.37079
960.51563	262.41461
959.37695	276.32852
958.2373	336.31323
957.09668	448.92038
955.95703	142.6861
954.81641	397.81903
953.67578	341.62375
952.53516	441.05814
951.39453	216.21869
950.25293	302.53003
949.11133	187.35042
947.96973	317.46582
946.82715	364.3605
945.68457	371.86536
944.54199	447.22336
943.39941	159.42851
942.25684	519.18274
941.11328	419.60043
939.96973	606.48492
938.82617	511.35458
937.68164	543.0387
936.53809	533.23187
935.39355	554.03802
934.24902	703.71747
933.10352	739.82318
931.95801	832.70532
930.8125	945.22589
929.66699	870.07825
928.52148	965.16248
927.3753	981.71838
926.22852	967.77741
925.08203	783.82776
923.93457	780.90796
922.78809	734.45026
921.64063	781.73694
920.49316	661.31616
919.34473	649.87897
918.19629	483.89508
917.04785	193.94252
915.89941	276.33554
914.75098	-2.47581
913.60156	158.3345
912.45215	-24.53737
911.30273	86.29119
910.15234	7.96767
909.00293	-26.79363
907.85254	-70.18482
906.70117	-22.25284
905.55078	-37.27976
904.39941	-6.642
903.24805	-67.15846
902.09668	-157.98656
900.94434	-90.27925
899.79297	-178.77907
898.64063	-65.42055
897.4873	-114.73304
896.33496	98.43803
895.18164	-9.30639
894.02832	149.6792
892.8753	87.60551
891.72168	92.78968
890.56738	137.02649
889.41309	233.28834
888.25781	281.9346
887.10352	259.18829
885.94824	305.7771
884.79297	103.55903
883.6377	122.1734
882.48145	177.61752
881.32617	118.49563
880.16992	59.46671
879.0127	-103.22618
877.85645	84.33621
876.69922	267.56909
875.54199	48.98907
874.38477	7.68073
873.22656	-29.21851
872.06836	132.59093
870.91016	102.30985
869.75195	20.32853
868.59277	76.53658
867.43457	57.30612
866.27441	130.89279
865.11523	150.62711
863.95605	94.98563
862.7959	186.00082
861.63574	233.96474
860.47461	361.69614
859.31445	315.00162
858.15332	91.83559
856.99219	129.34816
855.83008	306.83487
854.66895	120.65356
853.50684	162.69463
852.34473	241.37157
851.18164	36.22825
850.01953	216.12964
848.85645	67.14642
847.69336	217.05307
846.5293	137.07146
845.36621	342.93311
844.20215	291.06079
843.03711	241.44934
841.87305	168.33565
840.70801	395.84314
839.54297	314.32867
838.37793	314.47037
837.21289	113.07232
836.04688	364.36087
834.88086	248.99232
833.71484	193.79028
832.54785	395.89047
831.38184	493.00583
830.21484	534.47589
829.04688	494.63724
827.87988	367.11523
826.71191	494.51267
825.54395	549.17749
824.37598	593.21741
823.20703	551.75592
822.03906	722.17651
820.87012	644.54645
819.7002	575.60162
818.53125	425.55197
817.36133	416.72507
816.19141	516.97595
815.02051	452.79004
813.85059	493.38541
812.67969	694.22009
811.50879	538.53552
810.33789	348.86588
809.16602	389.85413
807.99414	253.841
806.82227	299.29913
805.65039	312.84964
804.47754	134.60162
803.30469	259.23517
802.13184	168.65845
800.95801	282.7825
799.78516	224.39748
798.61133	187.4398
797.4375	312.43579
796.2627	194.78018
795.08789	207.11525
793.91309	279.13031
792.73828	302.28226
791.56348	259.58261
790.3877	214.87859
789.21191	433.94675
788.03613	406.43143
786.85938	325.89972
785.68262	415.49121
784.50586	394.67535
783.3291	501.40399
782.15137	778.06775
780.97461	400.81815
779.7959	497.16962
778.61816	415.31696
777.43945	456.6583
776.26172	544.74085
775.08203	427.18158
773.90332	430.62149
772.72363	357.8479
771.54492	346.65936
770.36426	384.31625
769.18457	434.75833
768.00391	277.71692
766.82324	351.64835
765.64258	268.97885
764.46191	385.40118
763.28027	338.92807
762.09863	493.55942
760.91699	271.70187
759.73438	339.76477
758.55176	297.94406
757.36914	562.74487
756.18652	371.02112
755.00293	428.80627
753.82031	404.26163
752.63574	371.37817
751.45215	397.7161
750.26758	472.6922
749.08398	414.74152
747.89844	700.88117
746.71387	516.49567
745.52832	522.11951
744.34277	548.91138
743.15723	447.16144
741.97168	566.87067
740.78516	528.55383
739.59863	361.8028
738.41211	471.1665
737.22461	517.38232
736.03809	483.63269
734.85059	502.61121
733.66211	462.72916
732.47461	561.81598
731.28613	498.9425
730.09766	381.48044
728.90918	278.85931
727.71973	422.35205
726.53027	366.1572
725.34082	284.83606
724.15137	85.95197
722.96094	46.87852
721.77051	-4.71531
720.58008	-41.52606
719.38867	-107.64095
718.19824	34.1117
717.00684	49.96595
715.81445	-74.68386
714.62305	-64.9906
713.43066	7.67258
712.23828	-123.01023
711.0459	178.21935
709.85254	152.45204
708.66016	-32.49969
707.46582	19.40381
706.27246	-85.75107
705.07813	62.55161
703.88477	76.84856
702.68945	61.89659
701.49512	155.7943
700.2998	237.14766
699.10449	11.03959
697.90918	470.9617
696.71387	261.69852
695.51758	395.36734
694.32129	420.34189
693.12509	365.94186
691.92773	476.62335
690.73047	436.91824
689.5332	443.19199
688.33594	501.67444
687.1377	420.32947
685.93945	299.3949
684.74121	514.40314
683.54297	479.05069
682.34375	633.49585
681.14453	702.41187
679.94531	385.70407
678.74609	646.3844
677.5459	723.62482
676.3457	813.33661
675.14551	907.1792
673.94434	1009.32141
672.74316	1175.95105
671.54199	1163.52612
670.34082	1375.82202
669.13867	1590.11047
667.93652	1656.63159
666.73438	2003.83179
665.53223	2088.92578
664.3291	2101.23218
663.12598	2354.57007
661.92285	2296.14478
660.71973	2347.81543
659.51563	2119.10059
658.31152	2343.07935
657.10742	2363.5105
655.90234	2020.73547
654.69727	2090.97803
653.49219	2188.12793
652.28711	2301.79419
651.08105	2280.60767
649.87508	2383.77686
648.66895	2287.89209
647.46289	2386.79004
646.25586	2104.41724
645.04883	2145.23901
643.8418	2391.00415
642.63379	2158.36987
641.42578	2242.48144
640.21777	2328.57105
639.00977	2164.21875
637.80176	2469.44165
636.59277	2298.81616
635.38379	2363.91504
634.17383	2005.15308
632.96484	1952.35242
631.75488	1773.46899
630.54395	1658.64185
629.33398	1644.98853
628.12305	1567.25928
626.91211	1415.16504
625.70117	1770.81421
624.48926	1767.16785
623.27832	1540.61047
622.06543	1530.6637
620.85352	1654.67285
619.64063	1850.70666
618.42871	1968.22461
617.21484	1941.34558
616.00195	2239.927
614.78809	1988.26331
613.57422	1709.83386
612.36035	2071.80444
611.14551	1801.50964
609.93164	1889.34546
608.7168	1843.2854
607.50098	1860.91492
606.28613	1868.13184
605.07031	1906.08093
603.85449	1760.91321
602.6377	1788.35681
601.4209	1696.47022
600.2041	1777.08643
598.9873	1886.29712
597.77051	1798.17444
596.55273	1831.10535
595.33496	2013.74439
594.11621	1713.8634
592.89844	2031.59949
591.67969	1834.14124
590.46094	1919.66724
589.24121	2011.16834
588.02246	2102.47827
586.80273	2097.26782
585.58301	2128.79468
584.3623	2018.79273
583.1416	2101.22803
581.9209	2101.55444
580.7002	2333.08301
579.47852	2328.94775
578.25684	2480.18823
577.03516	2526.84741
575.81348	2661.28223
574.59082	2625.74048
573.36816	2536.87866
572.14551	2840.39209
570.92188	2945.34521
569.69824	2794.64868
568.47461	2952.32886
567.25098	3044.39893
566.02637	2903.45166
564.80273	2660.29932
563.57715	2739.5791
562.35254	2841.08398
561.12695	2666.91724
559.90137	2945.48193
558.67578	2762.82813
557.44922	2967.46216
556.22363	2813.03418
554.99609	2613.64136
553.76953	2556.7688
552.54199	2593.4314
551.31445	2534.15088
550.08691	2794.38769
548.85938	2502.5979
547.63086	2526.21338
546.40234	2596.41528
545.17383	2568.72241
543.94434	2266.23486
542.71484	2522.90771
541.48535	2392.95703
540.25586	2305.5376
539.02539	2406.93945
537.79492	2302.86792
536.56445	2336.75781
535.33301	2471.95874
534.10254	2265.76245
532.87109	1980.26392
531.63867	2248.74365
530.40723	2068.44556
529.1748	2151.73242
527.94238	2275.323
526.70898	1956.56873
525.47559	2138.48779
524.24219	2176.18896
523.00879	2063.68823
521.77441	2025.96838
520.54102	2067.03784
519.30664	1941.79541
518.07129	2109.95386
516.83594	2008.5846
515.60156	2079.0564
514.36523	1973.22449
513.12988	1954.19812
511.89355	2017.86438
510.65723	1767.85693
509.4209	1990.77661
508.18359	1991.03626
506.94629	1833.44824
505.70898	1833.27722
504.47168	1913.66492
503.2334	1846.36572
501.99512	1883.84619
500.75586	1664.72534
499.51758	1897.51367
498.27832	1914.0791
497.03906	1704.48486
495.7998	1791.20703
494.55957	1680.05835
493.31934	1556.6322
492.0791	1713.16638
490.83789	1631.63269
489.59668	1682.86121
488.35547	1608.96716
487.11426	1655.69434
485.87207	1587.41455
484.62988	1460.57019
483.3877	1627.34485
482.14551	1568.49939
480.90234	1591.91077
479.65918	1446.17188
478.41602	1485.23975
477.17188	1479.83887
475.92773	1576.71021
474.68359	1335.78076
473.43848	1542.67407
472.19434	1421.92285
470.94922	1670.44055
469.70313	1591.41956
468.45801	1724.96912
467.21191	1607.42651
465.96582	1547.90161
464.71875	1682.73096
463.47266	1574.68042
462.22559	1532.61951
460.97852	1612.63745
459.73047	1686.39648
458.48242	1553.57422
457.23438	1576.84668
455.98633	1603.92029
454.7373	1502.64429
453.48828	1327.16394
452.23926	1383.71314
450.98926	1430.03564
449.74023	1266.13672
448.48926	1336.08777
447.23926	1209.89978
445.98828	1061.59045
444.73828	1214.96985
443.48633	896.53033
442.23535	1019.56366
440.9834	1132.37781
439.73145	1199.05542
438.47949	1113.82336
437.22656	896.72913
435.97363	1008.82977
434.7207	979.08545
433.4668	867.4148
432.21387	891.26752
430.95996	763.43372
429.70508	844.79724
428.45117	764.58801
427.19629	566.71954
425.94141	761.22369
424.68555	839.99628
423.42969	771.27539
422.17383	772.14197
420.91797	713.18945
419.66113	799.39069
418.40527	837.72046
417.14746	852.03491
415.89063	917.95917
414.63281	641.81397
413.375	763.20746
412.11719	697.67596
410.8584	697.63348
409.59961	733.26575
408.34082	691.36401
407.08203	605.73315
405.82227	627.24225
404.5625	668.5246
403.30273	660.13239
402.04199	673.49225
400.78125	684.81482
399.52051	616.78027
398.25977	566.57556
396.99805	718.48663
395.73633	604.79382
394.47461	738.74176
393.21191	674.54034
391.94922	554.90643
390.68652	771.8493
389.42285	608.66492
388.16016	694.88812
386.89648	515.96075
385.63184	491.3746
384.36816	613.15472
383.10352	582.6474
381.83887	607.51575
380.57324	286.55685
379.30762	386.58716
378.04199	372.03885
376.77637	341.73477
375.50977	23.21027
374.24316	186.50923
372.97656	154.40947
371.70996	226.94859
370.44238	27.2754
369.1748	54.55359
367.90723	168.64293
366.63867	-46.47175
365.37012	116.99019
364.10156	-153.0354
362.83203	24.31432
361.56348	191.84078
360.29297	-22.65489
359.02344	20.9532
357.75293	137.4503
356.4834	218.59595
355.21191	93.2077
353.94141	188.29982
352.66992	324.74496
351.39844	323.62503
350.12598	442.51605
348.85449	449.48169
347.58203	326.88528
346.30957	330.19278
345.03613	349.33191
343.7627	449.10312
342.48926	232.93133
341.21582	228.95811
339.94141	389.93835
338.66699	409.75858
337.39258	404.22894
336.11719	318.45105
334.8418	332.84976
333.56641	157.29144
332.29004	373.86014
331.01465	235.92213
329.73828	299.93918
328.46094	342.54315
327.18457	185.62245
325.90723	126.79641
324.62988	115.13599
323.35156	125.16254
322.07324	47.34089
320.79492	-57.6478
319.5166	164.09518
318.2373	135.70229
316.95801	164.17213
315.67871	112.69968
314.39844	243.08022
313.11914	86.50452
311.83887	234.7558
310.55762	185.94159
309.27637	223.19592
307.99512	104.50527
306.71387	144.05017
305.43262	88.17687
304.15039	120.22755
302.86816	72.49631
301.58496	-78.36449
300.30176	20.41789
299.01855	41.38058
297.73535	4.0477
296.45117	-75.97606
295.16699	-39.01354
293.88281	188.81479
292.59863	-106.80523
291.31348	-106.4555
290.02832	-78.75861
288.74219	24.86704
287.45703	114.94872
286.1709	14.57846
284.88379	-0.15969
283.59766	60.9708
282.31055	26.95071
281.02344	29.90491
279.73535	129.98173
278.44727	230.05499
277.15918	246.65796
275.87109	294.31757
274.58203	359.41364
273.29395	408.96738
272.00391	590.31934
270.71484	463.3266
269.4248	566.98004
268.13477	697.65704
266.84375	628.64703
265.55371	704.8529
264.2627	1081.05969
262.9707	1009.74463
261.67969	1135.75928
260.3877	1375.72424
259.0957	1352.28052
257.80273	1591.70459
256.50977	1772.78687
255.2168	1976.75147
253.92383	2313.74121
252.62988	2418.37866
251.33594	2648.25269
250.04199	2742.47534
248.74805	2965.6958
247.45313	2923.9021
246.1582	3215.67847
244.8623	3117.02637
243.56641	3178.10693
242.27051	3124.85303
240.97461	3458.76514
239.67773	3510.44116
238.38086	3179.80518
237.08398	3565.68457
235.78711	3443.95728
234.48926	3514.23682
233.19141	3645.40064
231.89258	3818.09766
230.59473	3658.80395
229.2959	3764.3523
227.99609	3803.53589
226.69727	3872.58984
225.39746	4206.08105
224.09668	4098.02393
222.79688	4150.49609
221.49609	4184.53369
220.19531	4046.38647
218.89453	3922.49072
217.59277	4102.81787
216.29102	3799.74439
214.98926	3848.7605
213.68652	3763.88769
212.38379	3792.76123
211.08105	3823.96338
209.77734	3491.00586
208.47461	3246.75928
207.16992	3321.09741
205.86621	3309.35181
204.56152	3037.03906
203.25684	2868.37646
201.95215	3010.12549