#Wave		#Intensity
3000.64844	1169.88709
2999.91016	1225.771
2999.17188	1217.28381
2998.43359	1181.70789
2997.69531	1085.20264
2996.95703	1188.43811
2996.21875	1203.64185
2995.47949	1059.80322
2994.74023	1115.61365
2994.00098	1049.63318
2993.26172	1166.29211
2992.52246	1090.17664
2991.7832	1115.50378
2991.04394	1140.81873
2990.30371	1088.39404
2989.56348	1127.21191
2988.82422	1108.58606
2988.08398	1157.51257
2987.34375	1145.63391
2986.60254	1272.18311
2985.86231	1287.28735
2985.12109	1336.13196
2984.38086	1266.85132
2983.63965	1447.2561
2982.89844	1455.55701
2982.15723	1389.65393
2981.41602	1455.2804
2980.67481	1591.67932
2979.93262	1495.43897
2979.19141	1608.18372
2978.44922	1650.12158
2977.70703	1671.82727
2976.96484	1797.94043
2976.22266	1917.26953
2975.47949	1942.27063
2974.73731	1933.59631
2973.99414	2049.45825
2973.25195	2182.10327
2972.50879	2361.80029
2971.76563	2507.78857
2971.02246	2562.90698
2970.2793	2772.69287
2969.53516	2878.16821
2968.79199	3235.7251
2968.04785	3522.56616
2967.30371	3580.79248
2966.55957	4058.96704
2965.81543	4513.4502
2965.07129	4880.44287
2964.32617	5421.91016
2963.58203	5775.16748
2962.83691	6336.4082
2962.0918	7001.48145
2961.34766	7367.67041
2960.60254	7737.07617
2959.85644	8139.88477
2959.11133	8254.12891
2958.36523	8495.74219
2957.62012	8217.63574
2956.87402	8063.64258
2956.12793	7514.25635
2955.38184	7316.88184
2954.63574	6848.22412
2953.88965	6433.32373
2953.14258	6065.45264
2952.39648	5476.7334
2951.64941	5176.11475
2950.90234	4805.31494
2950.15527	4354.33447
2949.4082	4030.65381
2948.66113	3877.68945
2947.91309	3497.34692
2947.16602	3384.65503
2946.41797	3165.01343
2945.66992	2998.93115
2944.92188	2792.80103
2944.17383	2840.6958
2943.42578	2731.5481
2942.67676	2766.06641
2941.92871	2780.5332
2941.17969	2781.63232
2940.43066	2839.48169
2939.68164	2717.06274
2938.93262	2731.51196
2938.18359	2529.07153
2937.43457	2370.06934
2936.68457	2334.53003
2935.93457	2052.22485
2935.18555	1956.73596
2934.43555	2047.95691
2933.68555	1695.85535
2932.93457	1807.07593
2932.18457	1598.4054
2931.43359	1513.05798
2930.68359	1437.73206
2929.93262	1419.03699
2929.18164	1360.39307
2928.43066	1288.45239
2927.67969	1206.54993
2926.92773	1207.8595
2926.17676	1215.82117
2925.42481	1057.45923
2924.67383	1085.39233
2923.92188	1129.93518
2923.16992	958.36713
2922.41699	1079.35669
2921.66504	1060.72351
2920.91309	829.44342
2920.16016	850.71808
2919.40723	958.33905
2918.6543	796.92908
2917.90137	864.67059
2917.14844	802.91833
2916.39551	751.14215
2915.6416	712.65265
2914.88867	730.57874
2914.13477	692.09992
2913.38086	713.33032
2912.62695	688.12561
2911.87305	649.6648
2911.11914	564.80756
2910.36426	639.05597
2909.61035	647.0044
2908.85547	625.12744
2908.10059	609.87952
2907.3457	561.51581
2906.59082	576.07819
2905.83594	488.00452
2905.08008	562.14453
2904.32519	484.02625
2903.56934	511.81021
2902.81348	499.88272
2902.05762	547.49139
2901.30176	472.72287
2900.5459	523.6181
2899.78906	455.483
2899.0332	526.1861
2898.27637	487.80856
2897.51953	436.22574
2896.76269	526.69983
2896.00586	422.27835
2895.24902	572.15204
2894.49121	477.65509
2893.73438	452.50967
2892.97656	463.67041
2892.21875	461.62463
2891.46094	608.03406
2890.70313	536.68726
2889.94531	438.97983
2889.1875	582.00446
2888.42871	421.67822
2887.66992	558.05157
2886.91211	493.35114
2886.15332	455.02701
2885.39453	532.01154
2884.63477	464.04156
2883.87598	501.47217
2883.11621	538.88306
2882.35742	418.27045
2881.59766	468.84
2880.83789	430.54019
2880.07813	497.53134
2879.31836	492.12677
2878.55762	365.03137
2877.79785	310.32196
2877.03711	423.29483
2876.27637	460.62112
2875.51563	323.74969
2874.75488	298.6423
2873.99414	352.3851
2873.23242	376.54044
2872.47168	331.72134
2871.70996	204.82695
2870.94824	288.07477
2870.18652	276.10425
2869.42481	211.62848
2868.66309	202.94943
2867.90137	286.12067
2867.13867	221.66419
2866.37598	271.99927
2865.61426	250.18512
2864.85156	359.49249
2864.08887	288.49899
2863.32519	237.18582
2862.5625	267.79471
2861.79883	298.3859
2861.03613	404.28918
2860.27246	339.87872
2859.50879	295.13052
2858.74512	400.96155
2857.98047	379.11612
2857.2168	376.90906
2856.45313	361.61325
2855.68848	267.81738
2854.92383	301.58923
2854.15918	345.15344
2853.39453	372.35263
2852.62988	386.46423
2851.86426	325.4046
2851.09961	277.4346
2850.33398	317.67368
2849.56836	312.1698
2848.80273	342.58319
2848.03711	395.83478
2847.27148	334.8158
2846.50488	283.60339
2845.73926	340.08707
2844.97266	266.04721
2844.20606	377.95303
2843.43945	346.32059
2842.67285	295.13196
2841.90625	341.75821
2841.13965	310.13724
2840.37207	197.05092
2839.60449	334.88388
2838.83691	332.5849
2838.06934	450.79187
2837.30176	510.33572
2836.53418	547.06268
2835.7666	505.64673
2834.99805	513.05835
2834.22949	608.32147
2833.46094	661.25079
2832.69238	798.72986
2831.92383	815.82165
2831.15527	1031.25232
2830.38574	1129.55969
2829.61719	1322.0918
2828.84766	1465.79834
2828.07813	1599.70019
2827.30859	1801.76965
2826.53906	2055.72949
2825.76953	2105.00195
2824.99902	2248.40796
2824.22949	2304.1106
2823.45898	2324.08325
2822.68848	2321.32886
2821.91797	1961.67932
2821.14746	1689.74243
2820.37695	1651.41638
2819.60547	1376.38196
2818.83398	1101.44434
2818.06348	1047.02673
2817.29199	908.35907
2816.52051	896.10931
2815.74902	793.14795
2814.97656	674.02191
2814.20508	571.13037
2813.43262	500.64853
2812.66016	397.81494
2811.88769	320.90851
2811.11523	376.70666
2810.34277	338.6496
2809.57031	297.3671
2808.79688	262.56119
2808.02441	302.14218
2807.25098	247.94025
2806.47754	167.89331
2805.7041	188.06181
2804.92969	101.58074
2804.15625	202.51382
2803.38281	61.14278
2802.6084	129.73848
2801.83398	53.00037
2801.05957	60.22387
2800.28516	102.94584
2799.51074	68.19471
2798.73535	72.16808
2797.96094	60.00821
2797.18555	76.87409
2796.41016	125.97717
2795.63477	158.93636
2794.85938	56.48648
2794.08398	79.76794
2793.30762	74.03126
2792.53223	52.18574
2791.75586	56.11066
2790.97949	50.36745
2790.20313	76.82221
2789.42676	-19.07718
2788.65039	74.9676
2787.87305	-8.03538
2787.09668	-33.09129
2786.31934	-29.19167
2785.54199	-47.81385
2784.76465	-24.62703
2783.98731	17.83828
2783.20898	-36.16146
2782.43164	-25.86051
2781.65332	-18.78465
2780.87598	-69.54627
2780.09766	-52.83757
2779.31934	-74.68087
2778.54004	31.92257
2777.76172	-18.83322
2776.9834	-18.21536
2776.2041	4.86007
2775.42481	8.66936
2774.64551	-22.8179
2773.86621	-2.97658
2773.08691	-137.08441
2772.30664	55.90492
2771.52734	-20.46902
2770.74707	-87.20699
2769.9668	9.51199
2769.18652	-21.97212
2768.40625	-47.04261
2767.62598	-72.10869
2766.84473	5.29952
2766.06445	-3.76846
2765.2832	-54.45545
2764.50195	6.88917
2763.7207	-21.39169
2762.93945	-4.87643
2762.1582	34.01894
2761.37598	5.73068
2760.59473	-3.36374
2759.8125	-31.64463
2759.03027	119.07662
2758.24805	-56.23244
2757.46582	-11.01373
2756.68262	-93.60386
2755.90039	-26.04702
2755.11719	-47.93894
2754.33398	-12.35707
2753.55176	-88.51874
2752.76758	-36.99756
2751.98438	81.51469
2751.20117	-4.21183
2750.41699	-16.54781
2749.63379	-22.50271
2748.84961	3.42339
2748.06543	13.39402
2747.28125	-56.33203
2746.49609	-62.30213
2745.71191	-55.52666
2744.92676	-64.69069
2744.14258	66.29356
2743.35742	-3.40708
2742.57227	9.69653
2741.78711	13.23978
2741.00098	-11.87201
2740.21582	39.39666
2739.42969	-14.3558
2738.64356	52.7858
2737.85742	-35.94466
2737.07129	85.22308
2736.28516	37.83932
2735.49902	60.39892
2734.71191	3.48919
2733.92578	51.4561
2733.13867	7.26605
2732.35156	36.14262
2731.56445	134.86937
2730.77637	135.12123
2729.98926	81.40343
2729.20117	199.09145
2728.41406	-0.60499
2727.62598	148.77185
2726.83789	129.96063
2726.04981	60.40519
2725.26074	66.97144
2724.47266	54.51053
2723.68359	61.06461
2722.89551	121.49178
2722.10644	112.17672
2721.31738	49.00204
2720.52734	87.20217
2719.73828	49.37986
2718.94922	21.0651
2718.15918	65.56421
2717.36914	40.40775
2716.5791	65.8882
2715.78906	81.86188
2714.99902	113.64092
2714.20801	18.88683
2713.41797	85.43916
2712.62695	101.37166
2711.83594	98.32629
2711.04492	-24.82123
2710.25391	89.06239
2709.46289	127.07517
2708.6709	60.82732
2707.87988	29.3412
2707.08789	162.04962
2706.2959	92.65829
2705.50391	42.22518
2704.71191	127.50371
2703.91894	67.60258
2703.12695	45.57669
2702.33398	-4.83639
2701.54102	51.98044
2700.74805	45.71346
2699.95508	48.89988
2699.16211	-42.47102
2698.36914	-10.92112
2697.57519	-55.00435
2696.78125	-54.97794
2695.98828	61.57165
2695.19434	42.67228
2694.39941	55.2524
2693.60547	20.61167
2692.81152	45.7711
2692.0166	96.08307
2691.22168	33.12071
2690.42676	61.38792
2689.63184	99.07292
2688.83691	61.28009
2688.04199	4.63452
2687.24609	76.85994
2686.45019	-86.62189
2685.6543	45.27486
2684.8584	-17.63502
2684.0625	-2.01313
2683.2666	60.69678
2682.4707	76.28657
2681.67383	51.05622
2680.87695	76.04106
2680.08008	0.60584
2679.2832	63.22368
2678.48633	-81.19573
2677.68945	-43.68514
2676.8916	53.37302
2676.09473	-37.69156
2675.29688	122.0004
2674.49902	-37.99719
2673.70117	33.89969
2672.90234	68.1712
2672.10449	-38.50425
2671.30664	-16.76537
2670.50781	98.87534
2669.70898	61.09332
2668.91016	20.18984
2668.11133	-14.44669
2667.31152	79.18111
2666.51269	16.38451
2665.71289	72.43362
2664.91309	56.54435
2664.11426	15.65059
2663.31348	59.14465
2662.51367	-0.49943
2661.71387	86.71237
2660.91309	-7.29111
2660.11328	48.64613
2659.3125	38.97999
2658.51172	-108.05331
2657.71094	122.64411
2656.90918	50.53182
2656.1084	56.44849
2655.30664	168.41919
2654.50488	115.03403
2653.70313	55.42558
2652.90137	108.07576
2652.09961	160.70003
2651.29785	82.39749
2650.49512	131.87436
2649.69336	19.32281
2648.89063	155.99876
2648.08789	80.84054
2647.28516	142.71054
2646.48144	136.05679
2645.67871	110.72714
2644.875	178.75797
2644.07129	125.41002
2643.26758	65.8537
2642.46387	164.93872
2641.66016	61.8483
2640.85644	86.2647
2640.05176	151.073
2639.24805	153.6949
2638.44336	162.52031
2637.63867	115.41293
2636.83398	152.18536
2636.02832	179.61659
2635.22363	210.13997
2634.41797	184.76048
2633.61231	227.67032
2632.80762	192.97783
2632.00098	161.38661
2631.19531	216.66574
2630.38965	216.08878
2629.58301	175.18796
2628.77734	224.21301
2627.9707	208.11169
2627.16406	198.20847
2626.35742	327.74426
2625.54981	169.0947
2624.74316	149.89162
2623.93555	74.93941
2623.12891	136.25426
2622.32129	219.20605
2621.51367	218.54863
2620.70508	230.25934
2619.89746	204.83412
2619.08887	167.03346
2618.28125	194.19579
2617.47266	196.59825
2616.66406	239.18623
2615.85547	145.73891
2615.0459	203.7558
2614.23731	230.84795
2613.42773	162.14574
2612.61816	130.52892
2611.80957	265.69
2610.99902	301.97791
2610.18945	227.11197
2609.37988	368.3277
2608.56934	419.98547
2607.75977	379.05869
2606.94922	430.68127
2606.13867	479.19342
2605.32813	617.10754
2604.5166	462.06317
2603.70606	464.28363
2602.89453	460.32782
2602.08301	564.21509
2601.27148	332.24893
2600.45996	331.37952
2599.64844	348.98135
2598.83691	301.90894
2598.02441	239.45067
2597.21191	383.22925
2596.39941	357.69293
2595.58691	366.00378
2594.77441	235.87567
2593.96191	164.22607
2593.14844	403.17105
2592.33594	211.59857
2591.52246	296.73636
2590.70898	240.46298
2589.89551	313.25842
2589.08106	379.87073
2588.26758	332.80692
2587.45313	347.1691
2586.63965	241.77629
2585.82519	372.79041
2585.01074	331.86865
2584.19531	389.14917
2583.38086	526.17694
2582.56543	494.42596
2581.75098	585.3634
2580.93555	608.79407
2580.12012	561.69458
2579.30469	732.23901
2578.48828	636.07983
2577.67285	723.80066
2576.85644	691.99908
2576.04004	801.09815
2575.22363	536.53784
2574.40723	673.16687
2573.59082	619.94037
2572.77441	560.60535
2571.95703	758.32831
2571.13965	579.64917
2570.32227	584.56628
2569.50488	534.42328
2568.6875	707.51099
2567.87012	568.68951
2567.05176	598.02387
2566.23438	618.17621
2565.41602	598.5874
2564.59766	759.23895
2563.7793	547.19177
2562.95996	610.05231
2562.1416	688.15247
2561.32227	650.21106
2560.50391	554.29169
2559.68457	626.22827
2558.86523	627.95917
2558.04492	535.11652
2557.22559	576.4956
2556.40527	477.58402
2555.58594	570.76996
2554.76563	471.88153
2553.94531	534.53888
2553.12402	563.64447
2552.30371	461.74356
2551.4834	417.74313
2550.66211	532.09644
2549.84082	558.10535
2549.01953	416.67459
2548.19824	454.85394
2547.37695	529.526
2546.55469	375.98291
2545.7334	441.50116
2544.91113	506.98221
2544.08887	429.52234
2543.2666	336.88348
2542.44434	487.42917
2541.62109	382.63828
2540.79883	250.53909
2539.97559	425.29007
2539.15234	372.17868
2538.3291	294.78668
2537.50586	347.96567
2536.68164	364.68662
2535.8584	332.83951
2535.03418	361.67841
2534.20996	293.41834
2533.38574	310.10538
2532.56152	323.74567
2531.73731	252.4754
2530.91211	232.75433
2530.08789	288.81043
2529.26269	256.95282
2528.4375	261.45636
2527.61231	287.15476
2526.78711	237.11984
2525.96094	250.67992
2525.13574	188.54497
2524.30957	335.27722
2523.4834	309.44479
2522.65723	223.09869
2521.83106	312.23868
2521.00391	171.46016
2520.17773	266.60843
2519.35059	195.41554
2518.52344	169.58542
2517.69629	237.44984
2516.86914	241.823
2516.04199	249.20783
2515.21387	190.1225
2514.38574	206.55321
2513.55859	331.67682
2512.73047	175.9787
2511.90137	255.75909
2511.07324	365.6843
2510.24512	276.42236
2509.41602	202.26417
2508.58691	263.84998
2507.75781	253.03181
2506.92871	371.85266
2506.09961	336.88651
2505.27051	356.1741
2504.44043	327.22888
2503.61035	334.43875
2502.78027	395.85544
2501.95019	279.55954
2501.12012	392.1333
2500.29004	330.05283
2499.45898	249.923
2498.62793	350.37158
2497.79785	297.33481
2496.9668	202.19061
2496.13477	266.47043
2495.30371	21.00098
2494.47266	292.72293
2493.64063	197.61272
2492.80859	174.65701
2491.97656	247.85336
2491.14453	215.86751
2490.3125	192.89622
2489.47949	208.95918
2488.64746	210.00069
2487.81445	238.04491
2486.98144	224.05165
2486.14844	180.0473
2485.31445	250.05318
2484.48144	95.05712
2483.64746	281.99924
2482.81445	279.96213
2481.98047	238.93863
2481.14648	191.92716
2480.31152	132.93263
2479.47754	295.67813
2478.64258	188.73817
2477.80859	228.59535
2476.97363	220.5107
2476.13867	191.46294
2475.30273	333.03604
2474.46777	163.29691
2473.63281	230.0031
2472.79688	233.84404
2471.96094	150.93153
2471.125	367.09934
2470.28906	74.87502
2469.45215	102.6174
2468.61621	190.12347
2467.7793	220.80447
2466.94238	84.15118
2466.10547	195.47682
2465.26856	184.30041
2464.43164	370.19864
2463.59375	290.30395
2462.75684	156.70737
2461.91894	312.62982
2461.08106	334.21378
2460.24316	299.09912
2459.40527	353.46896
2458.56641	264.66296
2457.72852	360.74246
2456.88965	280.89365
2456.05078	210.00732
2455.21191	320.90939
2454.37207	303.64578
2453.5332	348.93832
2452.69336	263.16064
2451.85449	314.38101
2451.01465	264.34851
2450.17481	422.67807
2449.33398	378.57208
2448.49414	227.36771
2447.65332	296.33838
2446.81348	228.46626
2445.97266	300.36609
2445.13184	268.17212
2444.29102	322.18393
2443.44922	420.73981
2442.6084	290.45804
2441.7666	222.59827
2440.92481	240.89247
2440.08301	259.17047
2439.24121	399.16715
2438.39844	260.0498
2437.55664	218.92616
2436.71387	287.59866
2435.87109	397.77225
2435.02832	220.16177
2434.18555	312.49329
2433.34277	268.38156
2432.49902	345.8215
2431.65625	283.91724
2430.8125	201.27676
2429.96875	213.47253
2429.125	240.46646
2428.28027	237.81668
2427.43652	282.54459
2426.5918	294.6727
2425.74707	262.38455
2424.90234	360.3208
2424.05762	236.28439
2423.21289	251.33296
2422.36719	230.86587
2421.52246	195.61633
2420.67676	213.58644
2419.83106	281.79602
2418.98535	202.18796
2418.13867	214.20232
2417.29297	205.52701
2416.44629	276.59641
2415.60059	211.77889
2414.75391	327.09375
2413.90625	217.97604
2413.05957	232.86836
2412.21289	218.23396
2411.36523	265.55197
2410.51758	327.59274
2409.66992	271.62143
2408.82227	354.26056
2407.97461	254.06096
2407.12598	383.81146
2406.27832	457.51169
2405.42969	430.98132
2404.58106	430.96643
2403.73242	442.72403
2402.88379	422.07278
2402.03418	286.58026
2401.18555	327.76846
2400.33594	457.22452
2399.48633	430.65543
2398.63672	339.35858
2397.78711	392.22678
2396.93652	318.59274
2396.08691	244.98317
2395.23633	324.26318
2394.38574	394.68524
2393.53516	338.70053
2392.68457	329.73996
2391.83301	326.64206
2390.98242	264.79858
2390.13086	296.93369
2389.2793	449.42471
2388.42773	372.87976
2387.57617	316.89868
2386.72363	390.03503
2385.87207	301.78009
2385.01953	348.47241
2384.16699	383.40607
2383.31445	327.42038
2382.46191	242.1304
2381.6084	238.92503
2380.75586	300.18726
2379.90234	381.91934
2379.04883	267.34412
2378.19531	296.31317
2377.3418	342.83041
2376.48731	295.62796
2375.63379	383.08722
2374.7793	356.36093
2373.92481	361.82098
2373.07031	437.47906
2372.21582	404.87787
2371.36035	316.71051
2370.50586	322.1333
2369.65039	330.46103
2368.79492	370.92429
2367.93945	458.11554
2367.08398	361.2067
2366.22754	442.49789
2365.37207	436.14172
2364.51563	257.49924
2363.65918	397.11917
2362.80273	300.25687
2361.94629	428.12231
2361.08887	269.99383
2360.23242	494.05933
2359.375	391.3721
2358.51758	312.04123
2357.66016	270.63068
2356.80273	424.5213
2355.94434	514.22168
2355.08594	359.1228
2354.22852	576.96741
2353.37012	477.23526
2352.51172	339.67383
2351.65234	371.01605
2350.79394	361.58914
2349.93457	462.74426
2349.07617	476.5614
2348.2168	539.81433
2347.35742	317.9758
2346.49707	375.39114
2345.63769	374.6279
2344.77734	350.5914
2343.91699	538.72949
2343.05762	293.80307
2342.19629	467.32562
2341.33594	504.24969
2340.47559	491.77609
2339.61426	525.75006
2338.75293	356.47699
2337.8916	410.76126
2337.03027	279.28085
2336.16894	348.04556
2335.30664	390.65793
2334.44531	404.24606
2333.58301	397.51267
2332.7207	506.74332
2331.8584	407.21146
2330.99609	429.43149
2330.13281	474.80673
2329.26953	421.6528
2328.40723	327.96371
2327.54394	399.36432
2326.68066	386.75922
2325.81641	333.61343
2324.95313	242.85776
2324.08887	406.77084
2323.22461	289.96869
2322.36035	268.65836
2321.49609	365.92188
2320.63184	382.17404
2319.7666	219.16005
2318.90234	258.53619
2318.03711	292.09955
2317.17188	204.28699
2316.30566	258.04098
2315.44043	433.07648
2314.57519	264.39987
2313.70898	329.62744
2312.84277	198.53207
2311.97656	301.24411
2311.11035	250.97597
2310.24316	218.01842
2309.37695	187.95444
2308.50977	290.53915
2307.64258	179.71252
2306.77539	140.98502
2305.9082	87.85077
2305.04102	299.83371
2304.17285	292.75729
2303.30469	230.94328
2302.43652	218.10094
2301.56836	311.79031
2300.70019	249.97527
2299.83203	202.56422
2298.96289	368.10617
2298.09375	228.59168
2297.22461	376.78317
2296.35547	363.84619
2295.48633	210.00192
2294.61719	202.82971
2293.74707	175.52104
2292.87695	225.80652
2292.00684	342.14832
2291.13672	162.5381
2290.2666	74.89703
2289.39551	377.81937
2288.52539	379.15344
2287.6543	251.29262
2286.7832	353.07181
2285.91211	357.23856
2285.04004	292.53113
2284.16894	351.18469
2283.29688	246.33148
2282.42578	284.87833
2281.55273	283.25037
2280.68066	175.57079
2279.80859	191.143
2278.93555	109.27846
2278.06348	348.26758
2277.19043	375.21252
2276.31738	344.86771
2275.44434	317.38602
2274.57031	281.30926
2273.69727	308.20169
2272.82324	111.88944
2271.94922	207.43001
2271.07519	280.0419
2270.20117	246.81009
2269.32617	353.66431
2268.45215	240.37125
2267.57715	278.57291
2266.70215	231.02751
2265.82715	160.63422
2264.95215	124.53194
2264.07617	308.31592
2263.20117	323.56961
2262.32519	273.14212
2261.44922	222.7227
2260.57324	217.96805
2259.69727	290.23413
2258.82031	159.93031
2257.94336	229.2971
2257.06738	184.58044
2256.19043	211.13126
2255.3125	229.10234
2254.43555	218.56566
2253.55859	188.07753
2252.68066	163.27916
2251.80273	374.86722
2250.92481	159.23669
2250.04688	305.24112
2249.16797	254.76828
2248.29004	386.44592
2247.41113	216.45044
2246.53223	271.24518
2245.65332	380.04739
2244.77441	323.86343
2243.89453	267.68213
2243.01563	208.67572
2242.13574	331.56256
2241.25586	264.01154
2240.37598	281.70236
2239.49609	296.53494
2238.61523	237.50627
2237.73535	243.80054
2236.85449	332.39615
2235.97363	287.55096
2235.09277	310.81528
2234.21094	302.84283
2233.33008	300.54242
2232.44824	295.38757
2231.56641	264.70398
2230.68457	285.04935
2229.80273	299.70581
2228.9209	447.53525
2228.03809	249.62782
2227.15527	230.24733
2226.27344	165.55508
2225.39063	239.61911
2224.50684	228.7016
2223.62402	274.39569
2222.74023	232.32256
2221.85644	374.16843
2220.97363	303.78757
2220.08887	219.26424
2219.20508	295.95508
2218.32129	253.85983
2217.43652	237.20094
2216.55176	226.18957
2215.66699	119.09866
2214.78223	130.69092
2213.89746	184.63577
2213.01172	275.25128
2212.12695	250.06685
2211.24121	337.78842
2210.35547	318.2146
2209.46875	160.35877
2208.58301	248.01161
2207.69629	191.75301
2206.81055	163.71454
2205.92383	155.40425
2205.03711	-10.78442
2204.14941	223.30632
2203.26269	130.41313
2202.375	344.64017
2201.48828	341.87741
2200.60059	133.50001
2199.71191	206.76672
2198.82422	130.79074
2197.93652	-23.98063
2197.04785	243.41797
2196.15918	136.48505
2195.27051	234.93837
2194.38184	181.46349
2193.49316	212.35777
2192.60352	156.06357
2191.71387	217.8392
2190.82422	113.76523
2189.93457	212.02916
2189.04492	88.30776
2188.15527	110.67819
2187.26465	90.89569
2186.37402	180.60881
2185.4834	160.79704
2184.59277	129.75432
2183.70215	213.75996
2182.81055	149.02036
2181.91992	31.00795
2181.02832	232.72539
2180.13672	305.37399
2179.24512	335.93225
2178.35254	201.09338
2177.46094	66.30305
2176.56836	242.5345
2175.67578	9.71516
2174.7832	264.28256
2173.89063	205.12976
2172.99707	210.36929
2172.10449	246.3918
2171.21094	134.06201
2170.31738	377.09845
2169.42383	197.62561
2168.5293	102.1066
2167.63574	269.47217
2166.74121	252.23296
2165.84668	156.72226
2164.95215	209.35367
2164.05762	247.98265
2163.16309	138.52426
2162.26758	219.01425
2161.37207	190.55356
2160.47754	340.78568
2159.58106	306.69669
2158.68555	160.98218
2157.79004	18.10263
2156.89356	221.19243
2155.99707	298.6748
2155.10059	356.59375
2154.2041	233.2471
2153.30762	135.02451
2152.41016	142.72871
2151.51367	409.57602
2150.61621	464.56201
2149.71875	349.6008
2148.82031	262.51263
2147.92285	295.18384
2147.02441	372.36282
2146.12695	329.82611
2145.22852	445.90265
2144.33008	280.91678
2143.43066	349.63592
2142.53223	184.70872
2141.63281	142.17114
2140.7334	185.82013
2139.83398	215.54242
2138.93457	184.10266
2138.03516	341.59854
2137.13477	315.66953
2136.23438	317.51205
2135.33398	155.50847
2134.43359	237.86922
2133.5332	339.61676
2132.63281	291.45035
2131.73144	329.297
2130.83008	214.53874
2129.92871	183.02083
2129.02734	290.15631
2128.12598	275.24701
2127.22363	21.93128
2126.32129	128.99017
2125.41992	50.35316
2124.51758	146.25847
2123.61426	98.07475
2122.71191	288.06528
2121.80859	286.91693
2120.90527	247.00163
2120.00293	229.24011
2119.09863	78.63236
2118.19531	218.57342
2117.29199	222.91064
2116.38769	191.27306
2115.4834	126.45543
2114.5791	130.76248
2113.67481	162.69469
2112.76953	236.04367
2111.86523	267.91812
2110.95996	117.44762
2110.05469	99.58765
2109.14941	228.0677
2108.24414	-38.29286
2107.33789	159.13393
2106.43164	143.98131
2105.52637	167.45877
2104.62012	177.11322
2103.71289	120.5501
2102.80664	166.03262
2101.89941	228.01683
2100.99316	19.84847
2100.08594	227.8732
2099.17871	171.29465
2098.27051	40.3369
2097.36328	250.95418
2096.45508	18.12048
2095.54688	209.35394
2094.63867	111.47392
2093.73047	222.77971
2092.82227	80.88562
2091.91309	197.62207
2091.00391	149.27142
2090.0957	-138.30925
2089.18555	33.34399
2088.27637	114.2145
2087.36719	203.28653
2086.45703	135.67708
2085.54688	-6.09513
2084.63672	19.72726
2083.72656	226.77707
2082.81641	109.74472
2081.90527	-34.71521
2080.99414	-11.70991
2080.08301	132.01306
2079.17188	-34.35148
2078.26074	46.20677
2077.34961	30.73515
2076.4375	-58.78416
2075.52539	-79.74592
2074.61328	33.59061
2073.70117	83.84311
2072.78809	123.09526
2071.87598	-62.28902
2070.96289	113.88789
2070.04981	-170.03043
2069.13672	181.28366
2068.22363	-105.29822
2067.30957	185.62785
2066.39648	107.07189
2065.48242	91.44138
2064.56836	144.17957
2063.6543	43.75618
2062.73926	134.72404
2061.82519	-44.95018
2060.91016	18.64675
2059.99512	71.27794
2059.08008	36.45903
2058.16504	-42.05751
2057.24902	226.23421
2056.33301	218.66177
2055.41797	115.55238
2054.50098	-23.0261
2053.58496	149.50398
2052.66894	-57.24213
2051.75195	180.65352
2050.83594	273.92438
2049.91894	124.4845
2049.00098	220.41244
2048.08398	218.18735
2047.16699	251.37361
2046.24902	311.76855
2045.33106	173.29266
2044.41309	211.86929
2043.49512	408.33585
2042.57617	253.5433
2041.6582	136.91232
2040.73926	126.42801
2039.82031	249.24432
2038.90137	75.51605
2037.98144	138.43153
2037.0625	19.14832
2036.14258	73.87068
2035.22266	98.66326
2034.30273	85.39032
2033.38281	126.44787
2032.46191	175.61649
2031.54199	110.70079
2030.62109	13.20574
2029.70019	59.6174
2028.7793	35.42994
2027.85742	127.91753
2026.93652	60.29258
2026.01465	63.19964
2025.09277	14.56475
2024.1709	71.68723
2023.24902	185.70628
2022.32617	88.24171
2021.4043	7.07345
2020.48144	264.59201
2019.55859	53.36118
2018.63574	150.95372
2017.71191	321.59689
2016.78906	164.58968
2015.86523	99.65163
2014.94141	69.90861
2014.01758	400.02371
2013.09277	243.05714
2012.16894	229.49644
2011.24414	129.38779
2010.31934	323.99667
2009.39453	250.91591
2008.46973	194.06691
2007.54394	461.45755
2006.61914	353.23908
2005.69336	96.48978
2004.76758	401.51282
2003.8418	185.3302
2002.91504	382.20905
2001.98926	368.50232
2001.0625	427.63297
2000.13574	416.58734
1999.20898	526.9093
1998.28223	418.74451
1997.35449	445.40832
1996.42676	730.83093
1995.5	601.09442
1994.57227	665.39703
1993.64356	902.07074
1992.71582	664.5918
1991.78711	683.01819
1990.8584	838.74158
1989.92969	838.26001
1989.00098	792.01355
1988.07227	1111.73254
1987.14258	1100.39209
1986.21387	1016.42993
1985.28418	1260.5719
1984.35449	1069.02808
1983.42383	1138.2959
1982.49414	925.32696
1981.56348	1045.62964
1980.63281	1042.2876
1979.70215	1041.62219
1978.77148	877.12463
1977.84082	795.91754
1976.90918	819.41773
1975.97754	692.59265
1975.0459	651.67822
1974.11426	685.89069
1973.18262	569.86346
1972.25678	636.22858
1971.31738	619.43463
1970.38477	369.40289
1969.45215	714.48798
1968.51953	603.86224
1967.58691	327.15561
1966.65332	460.38196
1965.71973	266.8038
1964.78613	408.00073
1963.85254	474.17105
1962.91797	449.28857
1961.98438	336.10391
1961.04981	490.49982
1960.11523	433.49567
1959.18066	486.15784
1958.24512	434.49289
1957.31055	353.43948
1956.375	502.26895
1955.43945	282.23703
1954.50391	543.21973
1953.56836	365.98608
1952.63184	282.2804
1951.69531	433.58353
1950.75977	464.68689
1949.82227	396.98392
1948.88574	596.18036
1947.94922	472.435
1947.01172	591.47601
1946.07422	513.08997
1945.13672	581.38867
1944.19922	641.65192
1943.26172	453.98236
1942.32324	495.55969
1941.38477	537.10999
1940.44629	581.29779
1939.50781	497.61044
1938.56934	419.27209
1937.62988	521.98792
1936.69141	342.50293
1935.75195	429.20447
1934.8125	513.20044
1933.87207	514.67242
1932.93262	454.96924
1931.99219	278.26019
1931.05176	396.73193
1930.11133	395.52655
1929.1709	404.94189
1928.23047	584.40283
1927.28906	506.07681
1926.34766	390.586
1925.40625	415.87717
1924.46484	403.97769
1923.52344	376.14496
1922.58106	377.49704
1921.63867	288.61954
1920.69629	337.72189
1919.75391	349.66061
1918.81152	417.27508
1917.86816	474.23663
1916.92578	332.36041
1915.98242	521.81421
1915.03906	382.604
1914.09473	367.94556
1913.15137	347.99637
1912.20703	478.98572
1911.26269	429.86731
1910.31836	433.70227
1909.37402	575.15521
1908.42969	454.5708
1907.48438	376.34399
1906.53906	353.68588
1905.59375	494.99301
1904.64844	387.69116
1903.70313	375.59
1902.75684	403.11899
1901.81055	520.47315
1900.86426	439.62186
1899.91797	393.13245
1898.97168	597.54211
1898.02441	434.83105
1897.07715	536.16559
1896.12988	299.61026
1895.18262	548.6889
1894.23535	401.90949
1893.28809	329.03757
1892.33984	221.88991
1891.3916	578.84662
1890.44336	474.3096
1889.49512	467.32675
1888.5459	399.71716
1887.59766	495.4863
1886.64844	551.68543
1885.69922	362.92465
1884.74902	461.22867
1883.79981	572.65863
1882.84961	544.5246
1881.90039	374.3002
1880.95019	422.49915
1879.99902	431.20105
1879.04883	374.15259
1878.09766	559.01733
1877.14746	428.33832
1876.19629	573.6756
1875.24414	574.40125
1874.29297	501.56226
1873.3418	428.7439
1872.38965	508.26172
1871.4375	343.53897
1870.48535	528.03809
1869.53223	436.84229
1868.58008	555.62659
1867.62695	535.28583
1866.67383	446.74127
1865.7207	439.52621
1864.76758	518.83893
1863.81348	495.85584
1862.86035	727.13531
1861.90625	494.45401
1860.95215	568.409
1859.99805	479.91251
1859.04297	480.47974
1858.08887	371.07147
1857.13379	615.11963
1856.17871	647.04645
1855.22266	542.85846
1854.26758	606.16785
1853.31152	530.78918
1852.35644	363.90314
1851.40039	414.10159
1850.44336	560.99408
1849.48731	595.43481
1848.53027	606.32355
1847.57422	384.66992
1846.61719	406.03073
1845.65918	484.82297
1844.70215	265.90305
1843.74512	451.72955
1842.78711	587.86853
1841.8291	478.63388
1840.87109	541.64191
1839.91211	408.95563
1838.9541	524.10046
1837.99512	527.05402
1837.03613	550.85486
1836.07715	707.57636
1835.11816	533.25659
1834.1582	473.63144
1833.19922	473.95193
1832.23926	489.88025
1831.2793	412.05066
1830.31836	490.44424
1829.3584	568.81195
1828.39746	373.87067
1827.43652	254.45781
1826.47559	449.8576
1825.51465	421.49493
1824.55273	624.56073
1823.5918	411.57071
1822.62988	479.37839
1821.66797	430.20404
1820.70606	612.2948
1819.74316	412.41678
1818.78027	438.57742
1817.81836	394.61902
1816.85547	397.39319
1815.8916	314.49078
1814.92871	275.7439
1813.96484	416.03052
1813.00098	291.64709
1812.03711	660.10535
1811.07324	291.95517
1810.10938	388.02862
1809.14453	188.54402
1808.17969	421.93158
1807.21484	385.74707
1806.25000	453.1936
1805.28516	261.6023
1804.31934	339.3829
1803.35352	432.6619
1802.38769	342.11319
1801.42188	360.29053
1800.45606	344.81897
1799.48926	430.22833
1798.52344	337.14468
1797.55664	494.91669
1796.58887	347.5307
1795.62207	321.69974
1794.6543	603.40424
1793.6875	262.29077
1792.71973	427.63385
1791.75195	357.8685
1790.7832	616.0686
1789.81543	492.06613
1788.84668	344.86514
1787.87793	311.27182
1786.90918	450.56455
1785.93945	409.20474
1784.9707	388.50113
1784.00098	411.62854
1783.03125	610.0592
1782.06152	470.73065
1781.0918	346.91544
1780.12109	439.57309
1779.15039	782.07617
1778.18066	591.29443
1777.20898	709.57605
1776.23828	673.34051
1775.26758	873.93213
1774.2959	835.08679
1773.32422	832.27576
1772.35254	883.48444
1771.37988	849.78168
1770.4082	895.81604
1769.43555	862.11688
1768.46289	920.96405
1767.49023	799.88684
1766.51758	719.96545
1765.54394	547.58032
1764.57129	621.83984
1763.59766	524.00586
1762.62402	631.59943
1761.64941	716.03418
1760.67578	589.99957
1759.70117	630.78284
1758.72656	584.32495
1757.75195	525.05762
1756.77734	442.73279
1755.80176	239.92825
1754.82617	585.74707
1753.85156	575.20929
1752.875	603.08502
1751.89941	520.80255
1750.92383	674.18469
1749.94727	389.60608
1748.9707	640.22638
1747.99414	529.82398
1747.01758	475.76608
1746.04004	779.93329
1745.0625	521.17755
1744.08496	774.05566
1743.10742	546.08722
1742.12988	650.57007
1741.15137	583.73828
1740.17383	363.60544
1739.19531	761.88269
1738.2168	595.43378
1737.23731	589.94592
1736.25879	793.86334
1735.2793	816.41864
1734.29981	616.89264
1733.32031	973.78827
1732.34082	743.68866
1731.36035	822.34253
1730.38086	895.87366
1729.40039	716.91333
1728.41992	708.83978
1727.43848	746.63818
1726.45801	830.30444
1725.47656	715.18549
1724.49512	747.86285
1723.51367	653.1803
1722.53223	675.67023
1721.54981	738.87335
1720.56738	723.14453
1719.58496	641.2544
1718.60254	727.32507
1717.62012	724.32629
1716.63672	614.49622
1715.6543	875.97607
1714.6709	811.92261
1713.68652	958.85443
1712.70313	1108.27905
1711.71973	957.82996
1710.73535	975.09009
1709.75098	964.4054
1708.7666	905.4801
1707.78125	1209.60986
1706.79688	1259.8042
1705.81152	1284.59094
1704.82617	1238.32666
1703.84082	1113.44238
1702.85449	1414.68201
1701.86914	1284.74329
1700.88281	1385.54871
1699.89648	1164.41101
1698.91016	1277.87341
1697.92285	1082.17395
1696.93652	1213.34241
1695.94922	1422.96045
1694.96191	1214.6936
1693.97461	1436.88831
1692.98633	1894.37976
1691.99902	1706.3927
1691.01074	2143.40845
1690.02246	1897.2594
1689.03418	2167.14478
1688.04492	2393.92651
1687.05664	2213.61133
1686.06738	2245.67529
1685.07813	2459.67627
1684.08887	2607.90356
1683.09863	2571.66162
1682.1084	2671.81592
1681.11914	2792.14307
1680.12891	2899.7915
1679.13769	3123.4917
1678.14746	3228.51221
1677.15625	3230.0398
1676.16504	3395.53052
1675.17383	3767.76001
1674.18262	3877.61011
1673.19043	4368.07178
1672.19922	4571.01953
1671.20703	5119.11084
1670.21484	5588.88135
1669.22168	6688.1875
1668.22949	7575.51758
1667.23633	9535.11328
1666.24316	11247.21777
1665.25000	15004.875
1664.25684	21023.25586
1663.26269	30065.81055
1662.26953	46424.48047
1661.27539	71218.96875
1660.28027	103699.92188
1659.28613	113000.09375
1658.29199	115173.6875
1657.29688	116253.29688
1656.30176	116674.24219
1655.30664	116959.39063
1654.31055	99753.03125
1653.31543	48800.69922
1652.31934	35731.93359
1651.32324	27509.84961
1650.32715	22229.47461
1649.33008	18305.97266
1648.33398	15196.75098
1647.33691	12846.12695
1646.33984	11218.55371
1645.34277	9947.60254
1644.34473	8644.57715
1643.34668	7803.14258
1642.34961	6836.80029
1641.35156	6076.23438
1640.35254	5371.06348
1639.35449	5081.81445
1638.35547	4547.36084
1637.35644	4000.61621
1636.35742	3644.26831
1635.3584	3588.27564
1634.3584	3354.71631
1633.35938	3168.78174
1632.35938	3292.94458
1631.35938	3069.60596
1630.3584	2853.8523
1629.3584	2973.02661
1628.35742	3069.66699
1627.35644	2998.93237
1626.35547	3113.02368
1625.35449	3244.55249
1624.35254	3131.40332
1623.35059	3190.50732
1622.34863	3015.05127
1621.34668	3228.83984
1620.34473	3190.6416
1619.3418	3177.39258
1618.33887	2987.14551
1617.33594	2968.97559
1616.33301	2878.54981
1615.3291	2842.97412
1614.32617	2765.08374
1613.32227	2622.46753
1612.31836	2315.57056
1611.31445	2367.31079
1610.30957	2100.42432
1609.30469	2015.3219
1608.30078	1810.84644
1607.29492	1942.26782
1606.29004	1929.40442
1605.28516	1993.63977
1604.2793	1635.21594
1603.27344	1920.7124
1602.26758	1773.69959
1601.26074	1507.48791
1600.25488	1509.68335
1599.24805	1561.55029
1598.24121	1695.34888
1597.23438	1995.43445
1596.22656	1935.50159
1595.21973	2086.54541
1594.21191	2378.95117
1593.2041	2676.20972
1592.19629	2866.7168
1591.1875	3136.49414
1590.17969	3847.45288
1589.1709	3983.104
1588.16211	4240.13574
1587.15234	4011.46875
1586.14356	4023.1875
1585.13379	3755.05518
1584.12402	3430.09619
1583.11426	3241.43457
1582.10449	2919.2102
1581.09375	2926.23193
1580.08398	2794.72778
1579.07324	2596.49463
1578.06152	2628.33594
1577.05078	2514.30908
1576.03906	2543.70874
1575.02832	2859.81445
1574.0166	2948.46338
1573.00391	3138.37183
1571.99219	3175.08447
1570.97949	3634.07397
1569.96777	3897.84839
1568.9541	4405.89307
1567.94141	5412.29248
1566.92871	6544.14111
1565.91504	7801.35107
1564.90137	9689.49316
1563.88769	11599.07519
1562.87402	13862.92969
1561.85938	15798.02246
1560.84473	18220.31641
1559.83008	19986.2168
1558.81543	22268.74805
1557.80078	23582.4082
1556.78516	25223.05273
1555.76953	25087.93945
1554.75391	24879.05469
1553.73828	23001.70508
1552.72266	21093.15039
1551.70606	19086.97656
1550.68945	17229.20313
1549.67285	15694.3291
1548.65625	14283.02051
1547.63867	13172.16699
1546.62207	12454.99121
1545.60449	11905.19238
1544.58691	11402.30469
1543.56836	11155.05664
1542.55078	10225.30176
1541.53223	9109.35254
1540.51367	8057.69385
1539.49512	7364.76416
1538.47559	6470.93603
1537.45703	5491.64502
1536.4375	4932.13916
1535.41797	4063.92676
1534.39844	3509.87866
1533.37793	3186.46118
1532.3584	2848.49902
1531.33789	2662.58594
1530.31738	2731.51636
1529.2959	2396.34155
1528.27539	2347.80737
1527.25391	2235.65552
1526.23242	2018.32544
1525.21094	2077.61694
1524.18848	2034.14197
1523.16699	2132.58154
1522.14453	2218.76538
1521.12207	2009.0863
1520.09961	2447.31372
1519.07617	2176.60425
1518.05371	2091.74243
1517.03027	2080.21875
1516.00684	2195.73291
1514.98242	2211.08936
1513.95898	2055.5603
1512.93457	2066.09863
1511.91016	2203.56299
1510.88574	2240.95068
1509.86133	2332.01465
1508.83594	2208.4187
1507.81055	2533.59033
1506.78516	2490.50342
1505.75977	2525.45825
1504.73438	2653.02979
1503.70801	2429.698
1502.68164	3015.25659
1501.65527	2940.55689
1500.62891	2960.87964
1499.60156	3584.98535
1498.57422	3315.54932
1497.54785	3559.74341
1496.51953	3616.49634
1495.49219	3777.85913
1494.46387	3783.51782
1493.43652	4032.36645
1492.4082	3756.01001
1491.37891	3786.04053
1490.35059	3728.6062
1489.32129	3367.50952
1488.29199	3183.91138
1487.26269	3048.9856
1486.2334	2965.13013
1485.20313	2643.41919
1484.17383	2661.67114
1483.14356	2449.40283
1482.11328	2249.37744
1481.08203	2068.85767
1480.05176	1975.75012
1479.02051	2200.33057
1477.98926	1988.49475
1476.95703	1924.60889
1475.92578	1911.67004
1474.89356	2058.65308
1473.86133	1801.09741
1472.8291	2183.00049
1471.79688	2102.32544
1470.76367	2336.396
1469.73144	2526.84106
1468.69824	2850.3125
1467.66504	2776.92773
1466.63086	2812.43726
1465.59668	2821.35938
1464.56348	2883.50317
1463.5293	2793.35791
1462.49414	2664.6023
1461.45996	2702.65674
1460.42481	2682.73901
1459.38965	2822.26514
1458.35449	2560.91333
1457.31934	2661.83862
1456.2832	2854.46729
1455.24707	2849.15869
1454.21094	2578.47534
1453.17481	2884.47144
1452.13867	2804.48389
1451.10156	2963.27246
1450.06445	2767.63647
1449.02734	3022.84155
1447.99023	3005.66211
1446.95215	3058.38477
1445.91406	3364.04468
1444.87598	3127.73462
1443.83789	3134.7439
1442.79981	3199.55981
1441.76074	3314.91846
1440.72168	3423.04224
1439.68262	3045.1665
1438.64356	3182.23096
1437.60352	3021.05859
1436.56445	2910.48315
1435.52441	2898.53955
1434.48438	2973.15698
1433.44336	2817.09082
1432.40332	3045.51587
1431.36231	2983.24048
1430.32129	3158.76782
1429.28027	3764.02564
1428.23828	4040.20068
1427.19629	5093.88525
1426.15527	5264.17041
1425.11231	5688.70313
1424.07031	5407.94531
1423.02832	5383.92334
1421.98535	4755.76953
1420.94238	4365.21289
1419.89941	3672.89136
1418.85547	3841.05591
1417.81152	3647.46191
1416.76856	3707.86255
1415.72363	3514.44214
1414.67969	3737.70801
1413.63574	3609.06421
1412.59082	3571.44214
1411.5459	3605.64819
1410.50098	3187.77319
1409.45508	3018.82764
1408.41016	2962.37598
1407.36426	2796.0105
1406.31836	2847.25415
1405.27148	2602.19385
1404.22559	2574.68921
1403.17871	2657.10669
1402.13184	2543.70019
1401.08496	2490.06958
1400.03809	2448.43652
1398.99023	2779.17773
1397.94238	2818.70581
1396.89453	2729.42847
1395.84668	2881.13403
1394.79785	2906.42114
1393.75000	3191.62476
1392.70117	2918.94971
1391.65234	3073.0293
1390.60254	3026.92895
1389.55371	2711.6958
1388.50391	2944.43896
1387.4541	2722.30029
1386.40332	2757.41577
1385.35352	2940.14185
1384.30273	3072.85327
1383.25195	3046.13745
1382.20117	3126.52148
1381.15039	3035.67212
1380.09863	3170.7959
1379.04688	3213.18921
1377.99512	3257.98413
1376.94336	3217.25195
1375.8916	3302.50293
1374.83887	3107.45972
1373.78613	3052.65942
1372.7334	3411.07788
1371.67969	3311.21558
1370.62695	3410.81348
1369.57324	4262.64258
1368.51953	4532.90527
1367.46582	5327.31201
1366.41113	6384.66846
1365.35742	7318.34326
1364.30273	7362.72998
1363.24707	6876.24853
1362.19238	6186.23584
1361.13672	5425.479
1360.08203	4918.52148
1359.02637	4286.30566
1357.96973	4170.52978
1356.91406	3553.02344
1355.85742	3451.73926
1354.80078	3371.83789
1353.74414	3124.05469
1352.6875	3096.38135
1351.62988	2829.9314
1350.57227	2809.51416
1349.51465	2886.06348
1348.45703	2995.71362
1347.39844	2977.7771
1346.34082	2834.70117
1345.28223	4576.39648
1344.22363	3694.07202
1343.16406	3152.1084
1342.10547	3120.23804
1341.0459	3041.23267
1339.98633	3087.35181
1338.92578	3187.75146
1337.86621	3429.66113
1336.80566	3320.20117
1335.74512	3349.91919
1334.68457	3412.67163
1333.62402	3659.24585
1332.5625	3696.09229
1331.50098	3838.9668
1330.43945	3864.08838
1329.37793	4058.76856
1328.31543	4168.67822
1327.25293	4024.41821
1326.19043	4402.62939
1325.12793	4162.0332
1324.06543	4646.00293
1323.00195	5033.41113
1321.93848	5354.8833
1320.875	5596.35742
1319.81152	5847.18457
1318.74707	6525.57861
1317.68262	7074.54736
1316.61816	7778.3501
1315.55371	8967.97168
1314.48926	10211.15137
1313.42383	12066.4707
1312.3584	14376.32617
1311.29297	18053.09375
1310.22656	24329.75
1309.16113	34471.08594
1308.09473	52380.98438
1307.02832	82796.98438
1305.96191	102716.89063
1304.89453	105251.05469
1303.82813	106615.17188
1302.76074	107329.96875
1301.69238	107812.67969
1300.625	107904.23438
1299.55664	108098.79688
1298.48926	108056.96094
1297.41992	108019.875
1296.35156	108060.04688
1295.2832	43844.03125
1294.21387	24603.44531
1293.14453	25935.20313
1292.07519	29758.17188
1291.00488	34633.57422
1289.93457	38362.14844
1288.86523	39905.08594
1287.79394	37727
1286.72363	33698.21484
1285.65332	28069.67188
1284.58203	22739.94141
1283.51074	18665.60352
1282.43848	15430.58887
1281.36719	13158
1280.29492	12215.71582
1279.22266	11411.44727
1278.15039	11134.41113
1277.07813	10836.57324
1276.00488	10914.07617
1274.93164	10952.00586
1273.8584	10982.99219
1272.78516	10501.70801
1271.71094	10253.50977
1270.63672	9991.51172
1269.5625	9585.3916
1268.48828	10096.25488
1267.41406	9548.50195
1266.33887	9121.9834
1265.26367	8367.83008
1264.18848	7421.09277
1263.11328	6140.10059
1262.03711	5071.18164
1260.96094	4067.82275
1259.88477	3443.58301
1258.80859	3019.396
1257.73144	2925.16992
1256.65527	2930.86914
1255.57813	2853.07666
1254.50000	2856.60205
1253.42285	2978.50928
1252.34473	3144.50562
1251.2666	3192.22681
1250.18848	3161.16113
1249.11035	2942.40967
1248.03125	3103.90649
1246.95313	2653.67627
1245.87305	2567.41943
1244.79394	2414.09424
1243.71484	2235.42798
1242.63477	1913.36218
1241.55469	1693.34619
1240.47461	1360.09106
1239.39356	1367.16882
1238.31348	1418.26086
1237.23242	1219.62085
1236.15137	1284.73657
1235.06934	1303.65967
1233.98828	1371.17956
1232.90625	981.1911
1231.82422	1136.6864
1230.74219	1153.59241
1229.65918	1339.15198
1228.57617	1273.02978
1227.49414	1179.29993
1226.41016	1251.86133
1225.32715	1608.2821
1224.24316	1692.40039
1223.15918	1746.56934
1222.07519	1899.94824
1220.99121	1995.69446
1219.90625	2607.81885
1218.82227	2595.20361
1217.73633	2937.51074
1216.65137	3498.59131
1215.56641	4147.03027
1214.48047	4636.39063
1213.39453	5496.27539
1212.30859	6615.97266
1211.22168	8388.83594
1210.13574	11506.9834
1209.04883	16174.30957
1207.96191	24496.47461
1206.87402	40354.77734
1205.78711	66211.17188
1204.69922	98910.60938
1203.61133	101916.80469
1202.52246	103456.05469
1201.43457	104135.67969
1200.3457	104617.59375
1199.25684	105014.42188
1198.16797	105071.42188
1197.0791	105089.44531
1195.98926	105224.5625
1194.89941	58723.64063
1193.80957	30184.93359
1192.71875	23323.50391
1191.62891	17443.96484
1190.53809	13265.44434
1189.44727	10468.3291
1188.35547	8059.67773
1187.26465	6637.1123
1186.17285	5254.15723
1185.08106	4258.8252
1183.98926	3552.4375
1182.89648	2958.5791
1181.80469	2726.59546
1180.71191	2412.43189
1179.61816	2210.56519
1178.52539	2203.2417
1177.43164	2173.14111
1176.33887	2140.84058
1175.24414	2220.63355
1174.15039	2599.79688
1173.05566	2581.38623
1171.96191	3015.29175
1170.86719	3540.44409
1169.77148	4147.65478
1168.67676	5236.31006
1167.58106	6936.19971
1166.48535	8409.58008
1165.38965	10153.88086
1164.29297	11564.56152
1163.19629	12824.23828
1162.10059	12724.75
1161.00293	11253.2959
1159.90625	10021.80176
1158.80859	8209.94727
1157.71094	6975.22217
1156.61328	5782.08838
1155.51563	4480.24707
1154.41699	3832.36279
1153.31934	2957.23462
1152.21973	2551.31006
1151.12109	2029.60852
1150.02246	1594.63879
1148.92285	1189.50525
1147.82324	1036.98669
1146.72363	727.77582
1145.62305	500.59992
1144.52246	405.38428
1143.42188	498.83804
1142.32129	328.88611
1141.2207	306.68286
1140.11914	268.69138
1139.01758	348.82687
1137.91602	249.74471
1136.81445	370.85901
1135.71191	247.04336
1134.60938	288.9148
1133.50684	403.41089
1132.4043	431.8042
1131.30078	480.6785
1130.19824	608.91736
1129.09473	651.11224
1127.99023	496.33459
1126.88672	649.66882
1125.78223	488.33954
1124.67773	662.16815
1123.57324	535.0249
1122.46777	498.53613
1121.36328	226.88209
1120.25781	358.00983
1119.15234	251.75111
1118.0459	355.8772
1116.94043	356.06961
1115.83398	333.76331
1114.72754	562.33282
1113.62012	657.63745
1112.51367	646.84161
1111.40625	511.96875
1110.29883	609.75043
1109.19043	319.40866
1108.08301	324.8562
1106.97461	118.34565
1105.86621	198.45494
1104.75781	168.12654
1103.64844	86.05936
1102.53906	62.72178
1101.42969	39.48495
1100.32031	108.72492
1099.21094	-4.43324
1098.10059	13.18143
1096.99023	-34.41718
1095.87988	-27.87646
1094.76953	39.52336
1093.6582	-66.27103
1092.54688	-12.19531
1091.43555	-102.00428
1090.32422	53.43786
1089.21191	80.76263
1088.09961	171.10928
1086.98731	335.67514
1085.875	8.1868
1084.76172	40.37475
1083.64844	164.72751
1082.53516	158.88091
1081.42188	557.23633
1080.30762	533.55286
1079.19434	453.85745
1078.08008	547.06097
1076.96484	642.57471
1075.85059	767.28363
1074.73535	793.38995
1073.62012	909.24878
1072.50488	1000.4997
1071.38867	959.6134
1070.27344	1203.34412
1069.15723	1117.82361
1068.04102	1296.67981
1066.92383	1435.26868
1065.80762	1332.13062
1064.69043	1381.32495
1063.57227	1262.79724
1062.45508	1177.95581
1061.33691	921.04584
1060.21973	536.86993
1059.10059	682.81586
1057.98242	444.33969
1056.86426	467.51431
1055.74512	135.55559
1054.62598	74.11116
1053.50586	283.02301
1052.38672	250.79086
1051.2666	209.75406
1050.14648	409.86749
1049.02637	177.11064
1047.90527	227.88548
1046.78418	260.89179
1045.66309	539.27313
1044.54199	938.02466
1043.41992	1040.2644
1042.29883	1229.45447
1041.17676	1097.83801
1040.05469	1177.99329
1038.93164	957.56793
1037.80859	761.82642
1036.68555	561.81281
1035.5625	651.32098
1034.43945	783.16736
1033.31543	801.60938
1032.19141	889.09381
1031.06738	876.56696
1029.94336	597.34125
1028.81836	651.77991
1027.69336	710.73669
1026.56836	1031.95569
1025.44238	899.97412
1024.31738	981.34448
1023.19141	769.68628
1022.06543	957.8255
1020.93848	1012.8241
1019.8125	1174.39893
1018.68555	1027.62817
1017.55859	1065.12647
1016.43066	887.60663
1015.30371	958.57379
1014.17578	1020.75916
1013.04785	894.63153
1011.91992	1010.18024
1010.79102	1136.87317
1009.66211	1206.02356
1008.5332	1193.30933
1007.4043	1563.71265
1006.27441	1542.28882
1005.14551	1675.86572
1004.01563	1532.93384
1002.88477	1677.74927
1001.75488	1723.06128
1000.62402	1567.2572
999.49316	1650.37048
998.3623	1676.08069
997.23047	1591.41126
996.09863	1637.22266
994.9668	1543.95898
993.83496	1755.58301
992.70313	1697.85657
991.57031	1571.84241
990.4375	1585.01672
989.30469	1874.09033
988.1709	1748.43408
987.03711	1631.75134
985.9043	1742.31836
984.76953	1773.60962
983.63574	1763.08899
982.50098	1702.00647
981.36621	1581.56213
980.23145	1560.38965
979.09668	1592.17749
977.96094	1606.45703
976.8252	1607.61975
975.68945	1516.44556
974.55273	1812.69397
973.41699	1767.9093
972.28027	1745.2561
971.14258	1674.35266
970.00586	1821.21069
968.86816	1970.32129
967.73047	1895.31506
966.59277	1906.12463
965.45508	2204.78809
964.31641	2004.91077
963.17773	2112.61572
962.03906	2229.15356
960.90039	2005.54858
959.76074	2214.43604
958.62109	2263.18164
957.48145	2329.55078
956.3418	2325.8147
955.20117	2390.16553
954.06055	2371.29102
952.91992	2696.5874
951.7793	2785.21069
950.6377	2703.04858
949.49609	2640.729
948.35449	2955.15186
947.21191	2785.75024
946.07031	3043.29443
944.92773	3001.05689
943.78516	3438.05835
942.6416	3286.60327
941.49902	3555.16113
940.35547	3707.84448
939.21191	3698.80029
938.06738	3576.23364
936.92383	3565.2273
935.7793	3427.64038
934.63477	3416.88232
933.48926	3253.39502
932.34473	3472.09692
931.19922	3433.26782
930.05371	3289.80542
928.90723	3615.59326
927.76172	3555.22925
926.61523	3532.08081
925.46875	3622.41455
924.32129	3560.23511
923.1748	3676.86377
922.02734	3662.82275
920.87988	3701.16431
919.73145	3818.01489
918.58398	3706.24145
917.43555	3588.10034
916.28711	3694.29443
915.1377	3743.97876
913.98926	3839.39966
912.83984	3736.95019
911.69043	3736.84937
910.54004	3504.21314
909.39063	3828.24634
908.24023	3787.12915
907.08984	3935.16357
905.93848	3798.65869
904.78809	3946.80835
903.63672	4001.63306
902.48438	3924.11548
901.33301	4211.35498
900.18066	4400.92871
899.0293	4499.36084
897.87598	4517.62842
896.72363	4848.25049
895.57031	5066.09522
894.41699	5370.64551
893.26367	5898.3916
892.11035	6839.87451
890.95605	7986.87842
889.80176	9599.16016
888.64746	11243.32324
887.49316	12542.62695
886.33789	12906.39063
885.18262	12800.47266
884.02734	11978.51563
882.87109	11247.875
881.71582	9942.31934
880.55957	8862.30859
879.40332	7679.07666
878.24609	6863.88672
877.08887	6271.70068
875.93164	5606.39551
874.77441	5174.73291
873.61719	4987.35889
872.45898	4951.30615
871.30078	5034.0708
870.14258	4875.17432
868.9834	5102.6709
867.8252	4969.875
866.66602	4968.80273
865.50586	5202.87012
864.34668	5331.25488
863.18652	5196.74072
862.02637	5148.55811
860.86621	5337.45947
859.70508	5405.76318
858.54492	5801.41895
857.38379	6156.10156
856.22168	6355.75098
855.06055	6839.44238
853.89844	7344.54492
852.73633	8068.92773
851.57422	9803.91309
850.41113	12871.41699
849.24805	18736.7168
848.08496	31930.9668
846.92188	56106.83594
845.75781	89957.5
844.59375	98675.53125
843.42969	100401.92969
842.26563	101103.53125
841.10059	92439.42188
839.93652	44045.91797
838.77051	28396.64648
837.60547	18359.51953
836.43945	13562.08691
835.27441	10344.9375
834.10742	9108.03125
832.94141	8165.3335
831.77441	7818.86035
830.6084	7498.28125
829.44043	7415.72217
828.27344	7164.05615
827.10547	6844.07715
825.9375	6712.67188
824.76953	6714.07471
823.60156	6614.9751
822.43262	6552.37598
821.26367	6340.15332
820.09473	6363.2959
818.9248	6375.82764
817.75586	6138.31201
816.58594	6217.25195
815.41504	6253.51563
814.24512	6206.49023
813.07422	6025.03223
811.90332	6398.83008
810.73242	6166.29004
809.56055	6093.99902
808.38965	6273.54102
807.2168	6414.7207
806.04492	6244.47803
804.87305	6417.66602
803.7002	6535.43213
802.52734	6465.63574
801.35352	6493.97412
800.18066	6443.49268
799.00684	6574.16504
797.83301	6689.92383
796.6582	6648.15576
795.48438	6683.05518
794.30957	6822.29834
793.13477	6840.24658
791.95898	6719.9873
790.78418	6895.42529
789.6084	7000.69092
788.43262	7203.74707
787.25586	7149.60645
786.0791	7509.90674
784.90234	7640.64111
783.72559	7790.47754
782.54883	7821.36475
781.37109	7811.96582
780.19336	8004.26807
779.01563	7977.93115
777.83691	7682.20313
776.6582	7766.35693
775.47949	7710.53174
774.30078	7830.75977
773.12109	8042.15674
771.94238	8191.99853
770.7627	8290.97852
769.58203	8256.50488
768.40234	8279.23633
767.22168	8323.19141
766.04102	8045.33691
764.85938	8282.03516
763.67871	8099.59522
762.49707	7936.33154
761.31543	7889.50928
760.13281	7885.05908
758.9502	7889.09131
757.76758	7588.72119
756.58496	7791.53223
755.40234	7920.31592
754.21875	8087.11963
753.03516	8038.42383
751.85156	7905.29443
750.66699	8137.52148
749.48242	8278.89746
748.29785	8128.99072
747.11328	8207.03418
745.92773	8247.11426
744.74316	8341.99121
743.55762	8352.52344
742.37109	8405.25098
741.18555	8481.11719
739.99902	8674.98926
738.8125	8761.33789
737.62500	9108.86231
736.4375	9647.86914
735.25098	9877.12402
734.0625	10394.71387
732.87500	10329.11231
731.68652	10048.95801
730.49805	9619.56738
729.30957	9385.94824
728.12012	9219.73828
726.93164	9152.36523
725.74219	9053.51856
724.55176	9127.03906
723.3623	9021.91894
722.17188	9189.91016
720.98145	9351.51563
719.79004	9141.46191
718.59961	9347.05859
717.4082	9462.33984
716.2168	9411.80371
715.02441	9564.77246
713.83301	9533.07129
712.64063	9499.2959
711.44824	9670.94629
710.25488	9632.94531
709.06152	10091.53906
707.86816	10233.57519
706.6748	10199.58398
705.48145	10257.71484
704.28711	10313.72559
703.09277	10141.53027
701.89746	10159.83691
700.70313	10054.62988
699.50781	10183.73828
698.3125	10164.27051
697.11621	10234.70508
695.9209	10112.72461
694.72461	10199.77637
693.52832	10391.22168
692.33105	10559.58789
691.13379	10803.02148
689.93652	10931.45508
688.73926	11187.13086
687.54199	11678.5
686.34375	12004.77637
685.14551	12779.41504
683.94727	13858.19629
682.74805	14888.51465
681.54883	16228.98535
680.34961	16593.26758
679.15039	16363.37402
677.9502	15589.72266
676.75000	14695.52051
675.5498	13974.50391
674.34863	13507.79004
673.14844	13111.96191
671.94727	12795.35156
670.74609	12867.93066
669.54395	12634.60547
668.3418	12688.3418
667.13965	12667.11328
665.9375	13132.31641
664.73438	13967.25684
663.53125	15217.38477
662.32813	17786.23633
661.12500	22755.20898
659.9209	30928.56836
658.7168	42017.65234
657.5127	50602.41797
656.30859	51184.51172
655.10352	43603.17578
653.89844	34106.0625
652.69336	26846.80078
651.4873	21606.21289
650.28125	17493.55273
649.0752	15532.02344
647.86914	14408.45117
646.66211	13714.1582
645.45605	13289.31152
644.24805	12678.20019
643.04102	12531.00586
641.83301	12437.60547
640.62500	12211.66992
639.41699	12372.64063
638.20898	12076.23633
637.08900	12125.25586
635.79102	12145.17676
634.58203	12059.52441
633.37207	12217.69531
632.16211	12142.15332
630.95215	12151.21289
629.74219	12234.49023
628.53125	12263.9209
627.32031	12320.03613
626.10938	12295.47754
624.89746	12287.31641
623.68652	12318.1875
622.47461	12596.45898
621.26172	12208.32129
620.0498	12315.04297
618.83691	12310.25977
617.62402	12439.28711
616.41113	12454.76074
615.19727	12770.86719
613.9834	12695.32422
612.76953	12609.3457
611.55469	12745.60644
610.34082	12799.27539
609.12598	12834.24512
607.91113	12681.79004
606.69531	12825.45019
605.47949	12940.07129
604.26367	12910.52539
603.04785	12889.02734
601.83105	12947.51856
600.61426	13050.99512
599.39746	12809.10449
598.18066	13014.86133
596.96289	13004.73926
595.74512	12984.14941
594.52734	12957.2041
593.30859	13192.74609
592.09082	13136.62109
590.87109	13166.49316
589.65234	13066.91797
588.43359	13211.15039
587.21387	13232.12402
585.99316	13420.93164
584.77344	13398.36816
583.55273	13428.86133
582.33203	13237.91797
581.11133	13538.24316
579.89063	13535.21973
578.66895	13538.11133
577.44727	13677.85547
576.22461	13782.52832
575.00293	13696.66797
573.78027	13790.56055
572.55762	14059.97754
571.33398	14145.07129
570.11133	14221.67383
568.8877	14410.36523
567.66309	14613.01856
566.43945	14827.54883
565.21484	15145.85547
563.99023	15639.29981
562.76563	16311.84375
561.54004	17094.00781
560.31445	18418.17969
559.08887	20936.65625
557.8623	24563.02148
556.63672	27969.35156
555.41016	29404.99219
554.18262	28349.56641
552.95605	25377.16992
551.72852	22191.9043
550.50098	19453.69922
549.27344	17714.00586
548.04492	16687.20117
546.81641	15800.94434
545.58789	15191.46094
544.3584	14927.73731
543.12891	14779.72168
541.89941	14613.13184
540.66992	14627.20117
539.44043	14384.83691
538.20996	14445.00488
536.97949	14496.66894
535.74805	14454.53809
534.5166	14377.54492
533.28516	14426.09766
532.05371	14397.13379
530.82227	14479.42676
529.58984	14204.24121
528.35742	14375.04981
527.12402	14289.88867
525.8916	14502.41894
524.6582	14148.92578
523.4248	14279.55957
522.19043	14300.33496
520.95703	14322.72266
519.72168	14480.40332
518.4873	14378.42578
517.25293	14350.98633
516.01758	14339.3418
514.78223	14456.78906
513.5459	14545.44531
512.31055	14599.25098
511.07422	14602.05176
509.83691	14600.37793
508.60059	14565.92481
507.36328	14533.06836
506.12598	14673.53613
504.88867	14625.63769
503.65039	14779.25879
502.41211	14528.54199
501.17383	14697.34766
499.93457	14704.15918
498.69629	14827.52637
497.45703	14861.60352
496.2168	14818.54688
494.97754	14898.02832
493.7373	14640.32129
492.49707	14730.91992
491.25586	14548.94629
490.01563	14594.20801
488.77441	14679.22754
487.53223	14586.48535
486.29102	14583.875
485.04883	14504.25488
483.80664	14615.32519
482.56348	14701.6709
481.32129	14632.56738
480.07813	14770.0918
478.83496	14802.46289
477.59082	14723.70508
476.34668	14903.69141
475.10254	14771.60059
473.8584	14807.75293
472.61328	14706.74414
471.36816	14737.73731
470.12305	14583.44922
468.87793	14687.56641
467.63184	14656.59863
466.38574	14885.86328
465.13965	14875.74707
463.89258	14662.48633
462.64551	14713.36231
461.39844	14859.82031
460.15039	14574.72754
458.90332	14539.59961
457.65527	14551.92578
456.40625	14503.52148
455.1582	14372.42969
453.90918	14400.88379
452.66016	14326.61328
451.41016	14401.77637
450.16113	14420.25684
448.91113	14364.04981
447.66016	14253.19629
446.41016	13933.82813
445.15918	14183.53613
443.9082	14048.78613
442.65723	14135.16699
441.40527	14059.00879
440.15332	14010.14453
438.90137	13866.76269
437.64844	13822.51465
436.39551	14108.84375
435.14258	14051.15527
433.88965	13737.44238
432.63574	13849.88965
431.38184	13814.00293
430.12793	13695.66113
428.87305	13793.8291
427.61914	13612.27344
426.36426	13756.71094
425.1084	13543.78613
423.85352	13589.06836
422.59766	13464.30664
421.34082	13591.55762
420.08496	13439.4082
418.82813	13378.01269
417.57129	13323.79883
416.31445	13419.92969
415.05664	13224.90527
413.79883	13261.70313
412.54102	13156.56348
411.28223	13257.23047
410.02441	13345.12988
408.76563	12969.38769
407.50586	12966.19336
406.24707	12882.77637
404.9873	12929.47754
403.72656	12895.87988
402.4668	12891.21387
401.20605	12933.22266
399.94531	12676.89551
398.68457	12744.89746
397.42285	12669.2207
396.16113	12602.57324
394.89941	12594.46973
393.63672	12868.63379
392.37500	12872.47949
391.1123	12986.20703
389.84863	13090.97363
388.58496	13026.53516
387.32227	12852.39746
386.05762	12831.55957
384.79395	12724.76953
383.5293	12694.10644
382.26465	12532.00488
381.00000	12442.10156
379.73438	12145.69824
378.46875	11840.51563
377.20313	11878.09277
375.93652	11977.75879
374.66992	11807.875
373.40332	11862.02051
372.13672	11757.24121
370.86914	11680.98828
369.60156	11804.88477
368.33398	11683.14258
367.06543	11493.29004
365.79785	11525.22168
364.5293	11577.66406
363.25977	11378.71289
361.99023	11328.43848
360.7207	11525.19824
359.45117	11336.82813
358.18164	11328.50195
356.91113	11283.55176
355.64063	11257.14941
354.36914	11400.6709
353.09766	11446.59961
351.82617	11481.50586
350.55469	11593.84766
349.2832	12003.68262
348.01074	12221.47363
346.73828	12624.58594
345.46484	13354.22266
344.19141	13550.18262
342.91797	14314.13867
341.64453	14803.70117
340.37012	14695.19336
339.0957	14703.1875
337.82129	14392.16894
336.54688	13640.76563
335.27148	13364.73926
333.99609	12440.71973
332.7207	12272.23828
331.44434	11669.45313
330.16797	11132.21875
328.8916	10760.3584
327.61426	10489.05371
326.33691	10206.73926
325.05957	9735.32324
323.78223	9644.29297
322.50391	9405.13086
321.22559	9129.49316
319.94727	9198.67481
318.66797	8957.46777
317.38965	8847.95703
316.10938	8758.38086
314.83008	8851.14746
313.5498	8438.4375
312.26953	8452.10254
310.98926	8347.17188
309.70801	8318.7959
308.42676	8290.90918
307.14551	8101.5752
305.86426	8119.53613
304.58203	8020.82617
303.2998	7877.75586
302.0166	7861.76367
300.73438	8066.51416
299.45117	8337.71094
298.16797	8174.80273
296.88379	8319.93555
295.59961	8510.1582
294.31543	8733.75195
293.03125	9087.98828
291.74609	9522.06445
290.46094	9866.79394
289.17578	10594.82519
287.88965	11414.10547
286.60352	12664.87891
285.31738	14082.52344
284.03125	15791.27734
282.74414	17221.60156
281.45703	17511.44531
280.16895	16657.54883
278.88184	14837.58984
277.59375	12162.58008
276.30469	9830.36621
275.0166	8184.36914
273.72754	6643.89844
272.43848	5885.78662
271.14941	5079.70654
269.85938	4535.67285
268.56934	4133.4873
267.2793	4016.41504
265.98828	3788.95483
264.69727	3408.70679
263.40625	3381.10107
262.11426	3078.56323
260.82324	2985.38745
259.53027	2951.98999
258.23828	2597.68042
256.94531	2655.34985
255.65234	2316.62622
254.35938	2105.64575
253.06641	2074.4939
251.77246	2019.98975
250.47852	1778.08814
249.18359	1845.11231
247.88867	1784.60169
246.59375	1606.28296
245.29883	1341.10449
244.00293	1401.89392
242.70703	1134.57446
241.41113	1210.57861
240.11523	1060.79187
238.81836	951.23706
237.52148	785.67114
236.22363	854.9281
234.92578	594.5061
233.62793	499.64975
232.33008	400.76773
231.03125	264.93781
229.7334	288.87323
228.43359	271.7568
227.13477	281.49808
225.83496	59.92773
224.53516	-96.45802
223.23438	108.20374
221.93457	-2.6287
220.63379	155.12222
219.33203	45.16447
218.03125	42.65917
216.72949	37.65056
215.42773	-88.72745
214.125	        -37.12765
212.82227	182.91904
211.51953	5.21103
210.2168	97.63063
208.91309	-4.39602
207.60938	50.37814
206.30566	35.60671
205.00098	-129.39302
203.69629	166.97469
202.3916	-0.98051
201.08691	81.50028